accX_mean,accY_mean,accZ_mean,accX_mad,accY_mad,accZ_mad,accX_std,accY_std,accZ_std,accX_min,accY_min,accZ_min,accX_max,accY_max,accZ_max,accX_iqr,accY_iqr,accZ_iqr,accX_skew,accY_skew,accZ_skew,accX_kurtosis,accY_kurtosis,accZ_kurtosis,accX_sma,accY_sma,accZ_sma,accX_energy,accY_energy,accZ_energy,accX_entropy,accY_entropy,accZ_entropy,Tremor
4.831922381189923,3.6781018404639205,20.256467019015286,3.9449782132822766,2.299747939037903,34.41273963332243,22.26937638504763,7.072048220452571,357.63409559816404,0.013321255000022347,0.24140815255296857,0.16303325728647994,453.267317695,120.79937734502,7436.201858,3.0331058045831787,2.0654623905619154,2.3808558583057264,19.05243326620304,12.17924514024157,20.687266790910208,378.79961361134605,182.24508878017443,425.9761658705245,4.8319223811899255,3.678101840463919,20.2564670190153,519.2725984767611,63.54229918123046,128312.47079040913,-2658.5539085254845,-299.3832312822238,-1182146.0186768994,0
2.424986824357311,2.422778328951399,2.556190595207893,1.0655268390795885,0.9280180899389268,1.1512939677159266,1.3933549197595403,1.1316838135304226,1.3891334411689755,0.1606336754411426,0.24140815255296857,0.16303325728647994,7.806877421512958,5.9770867427592025,5.819791429758553,3.0331058045831787,2.0654623905619154,2.3808558583057264,1.0994929708432408,0.28411509483809316,0.53593354000855,1.5514847157873444,-0.27014626215001414,-0.5776637234600224,2.424986824357311,2.422778328951398,2.5561905952078927,7.82199903072467,7.150563085043289,8.46380207640324,-2658.5539085254845,-299.3832312822238,-1182146.0186768994,0
4.227179896725602,3.09841340051129,4.037142726455947,1.7485734299212687,1.1827428289793596,1.7637283591686774,2.2204358760816305,1.4416135034385873,2.362055654515793,0.19737673204336045,0.43212351130681986,0.610947463926294,9.730197278357284,5.836146623385804,12.578562401486996,3.0331058045831787,2.0654623905619154,2.3808558583057264,0.3366947124192562,0.18276201987972446,1.225073232070387,-0.4064936276171949,-0.8862458111624849,1.8808593863945031,4.227179896725599,3.098413400511289,4.037142726455947,22.799385359071447,11.678415093764409,21.8778283088062,-2658.5539085254845,-299.3832312822238,-1182146.0186768994,0
4.86156453551326,4.351863998841433,4.668302188682598,1.7603455627527453,2.2015429936230366,2.147235568923509,2.185516424996198,2.957914157198553,2.7181889892180324,0.5856441868813154,0.4326131818427366,1.2326942561004153,9.007370205813107,13.259844104904845,12.273331207720359,3.0331058045831787,2.0654623905619154,2.3808558583057264,-0.007451370624673901,1.4235843104916022,1.079041946772325,-0.6479237026971978,1.5715465452326658,0.6433250070277494,4.861564535513258,4.351863998841433,4.668302188682598,28.411291776888415,27.687976425767786,29.181596705964886,-2658.5539085254845,-299.3832312822238,-1182146.0186768994,0
7.145499869510041,8.448027427194,3.3099074665397277,3.0024279966379352,1.7094973626000713,1.1220416647007216,3.3888076996975474,2.1833351004261354,1.763210130633129,1.846555475360968,5.520952886097972,1.312564982698509,13.328679723379823,13.518604769352214,8.752689040618547,3.0331058045831787,2.0654623905619154,2.3808558583057264,0.450599520932766,0.7121427831024423,1.9368966759872268,-1.038512943613764,-0.04544524480558598,3.7759572180040823,7.145499869510041,8.448027427194,3.309907466539728,62.5421860106974,76.13611957137485,14.06439740182274,-2658.5539085254845,-299.3832312822238,-1182146.0186768994,0
18.854420350302295,13.87128208683099,2.555607755405199,8.9225273399719,8.726246856029896,1.0478361657466613,12.02264619446001,11.383193226744256,1.3250325236908425,10.300497736722624,3.1148404140853647,0.897622699481925,51.97690205088921,44.251059117951996,5.4743736941063466,3.0331058045831787,2.0654623905619154,2.3808558583057264,1.7136220250516634,1.360234228192765,1.1532924519766061,1.8763393976961389,1.2618750982105142,0.012538744399385404,18.854420350302295,13.87128208683099,2.555607755405199,500.03318826305707,321.98955476983457,8.286842188325723,-2658.5539085254845,-299.3832312822238,-1182146.0186768994,0
76.1822282837784,57.36450057589051,5.8106833675288385,0.0,0.0,0.0,0.0,0.0,0.0,76.1822282837784,57.36450057589051,5.8106833675288385,76.1822282837784,57.36450057589051,5.8106833675288385,3.0331058045831787,2.0654623905619154,2.3808558583057264,0.0,0.0,0.0,-3.0,-3.0,-3.0,76.1822282837784,57.36450057589051,5.8106833675288385,5803.731906281726,3290.685926321343,33.764041197676285,-2658.5539085254845,-299.3832312822238,-1182146.0186768994,0
7.509731201410771,6.225258572661732,37.715406510823385,5.030926976536551,6.641680801778152,63.22005134766994,29.681749784697413,44.88707490410416,646.2801715220188,0.38087435528312175,0.06282660757836635,0.0449825951541013,598.7581612072,897.8008272559999,13219.096112500001,3.8841470934309235,2.02282532031447,4.007160063290645,19.024357309247975,18.916111371292114,20.34611803387542,374.73419726503084,370.6329396107551,411.9772032423646,7.509731201410773,6.225258572661727,37.7154065108234,937.4023329988279,2053.603337743156,419100.5119908066,-2660.9485481952374,-6347.29107071351,-2207648.9083969276,0
3.210432591754089,1.546829744756543,2.7963121656979943,1.3230799019168382,0.6646408836268852,1.2475764403099725,1.6561539909080878,0.8216737470725222,1.5664414662797668,0.30367081302514604,0.11079201618853861,0.13911841632526245,9.358146444231954,4.174633244267461,8.735901509029913,3.8841470934309235,2.02282532031447,4.007160063290645,0.7087097291015713,0.6176551686346602,0.787106344765812,0.6522894656235736,-0.051851998879469896,0.3664723849258973,3.2104325917540906,1.5468297447565433,2.796312165697997,13.04972346779767,3.0678300058917927,10.273100595311325,-2660.9485481952374,-6347.29107071351,-2207648.9083969276,0
4.647919124271394,2.267814381402501,4.814983378583242,2.016373982494275,1.0859938199957329,2.161933297069635,2.54312405377892,1.3738122800968129,2.7374083703052046,0.38087435528312175,0.06282660757836635,0.0449825951541013,13.976929706398522,8.15265338352547,15.216149942450137,3.8841470934309235,2.02282532031447,4.007160063290645,0.8461823863897906,1.1082682247588602,0.8809676580143754,0.677078374329219,1.918245724905713,0.9103932769875449,4.647919124271393,2.267814381402501,4.8149833785832445,28.07063213867667,7.030342249440812,30.67746952184991,-2660.9485481952374,-6347.29107071351,-2207648.9083969276,0
5.755366299613664,3.5804399342429414,8.615528094530037,2.123514296582714,1.425186704065082,3.50284544281019,2.497290286031679,1.8016837037742872,4.261566733082546,1.69744929161265,0.5208596068621346,2.3444923363448997,10.49131909077154,7.504544252227938,18.079888763149984,3.8841470934309235,2.02282532031447,4.007160063290645,0.025876422048730623,0.572340331226113,0.44717712473047777,-0.9914347648701449,-0.37829536956749976,-0.4351433556537767,5.755366299613664,3.5804399342429414,8.615528094530035,39.360700015436876,16.06561429116743,92.3882753681522,-2660.9485481952374,-6347.29107071351,-2207648.9083969276,0
4.828393461299633,3.168244838043493,6.677097320438854,2.204642990740127,1.1561094838187682,2.555363823903067,2.8844235808152754,1.4933205375634644,2.9771322921032817,0.449224854098354,0.45768452904862483,1.3864816706763148,12.640533686452882,6.575372518761424,10.871368399923014,3.8841470934309235,2.02282532031447,4.007160063290645,0.8549492936019676,0.5102967842878618,-0.18936967717886694,0.6033126947352154,-0.06469228897188462,-1.1353698448313256,4.828393461299633,3.1682448380434933,6.677097320438854,31.63328281068428,12.267781581698076,53.44694531129587,-2660.9485481952374,-6347.29107071351,-2207648.9083969276,0
6.336433171139899,3.8091237937830256,6.844645175037621,2.800314017726516,2.0233544917612805,3.2442393490509738,3.3075573522973336,3.1872812050595187,4.05583321786509,0.4231835689422851,0.3369291730613175,0.7439329219310331,14.472880256195511,20.183780788700226,20.454446292583995,3.8841470934309235,2.02282532031447,4.007160063290645,0.24510171163026132,2.863490499829152,0.8602338359946586,-0.8216788178472849,10.571792283801306,0.5869747211441925,6.336433171139899,3.8091237937830242,6.844645175037619,51.09032097105818,24.66818555648964,63.29895066330364,-2660.9485481952374,-6347.29107071351,-2207648.9083969276,0
35.20241549594146,52.239842795826,5.595546644077524,19.187430750536038,38.51677633106731,2.5057172914088515,24.772327759543742,46.8912345254588,2.9200517221727047,8.331940060117951,8.060492982696262,0.9904769890984286,90.40628378795714,158.2169457840991,9.830240896618752,3.8841470934309235,2.02282532031447,4.007160063290645,0.9867506160486526,1.1717718292854278,0.1617147109654018,0.12463773298086434,0.20290860794328713,-1.2370844307759383,35.20241549594146,52.239842795826,5.595546644077524,1852.8782793751614,4927.789050654193,39.83684430621102,-2660.9485481952374,-6347.29107071351,-2207648.9083969276,0
7.5804969250439935,5.372950389775914,33.30084229385097,5.06506322515839,4.358975525290443,54.79666704525016,30.918868161461276,29.976677449276444,568.1551937243943,0.2884409761551234,0.12738855694840048,0.2922842311870132,633.7389972484002,606.4682464100001,11787.185923499997,3.98521798507861,2.410210673098927,3.989389952163041,19.433505601418812,19.013276931601354,20.638760687939605,389.30565980095395,374.834256353012,423.97313528216955,7.5804969250439935,5.37295038977591,33.300842293850934,1013.4403420164253,927.469786788952,323909.27025348385,-3409.0045158194766,-3052.9039123391467,-1951779.6841881664,0
3.843714580094186,2.597429100477428,4.061351787820817,1.5977761608542396,1.0918513786497952,1.7579827738026406,2.0394762547330214,1.3714939089195057,2.1424236128018497,0.2642459303209835,0.18104891942387813,0.09439632349951595,13.839803308950739,8.088386353035181,10.38100812405769,3.98521798507861,2.410210673098927,3.989389952163041,0.8940371285245107,0.6991098715028143,0.46757275067724874,1.3341232513993875,0.47351162053111384,-0.17879428586768675,3.843714580094185,2.5974291004774295,4.061351787820814,18.933605166848455,8.627633474210295,21.084557281126255,-3409.0045158194766,-3052.9039123391467,-1951779.6841881664,0
5.484685150849788,2.7936161946252698,5.558546464759146,2.146505146955687,1.224814336519142,2.3254667080978226,2.599495033415911,1.485186036894557,2.8692285376428384,0.2884409761551234,0.12738855694840048,0.2922842311870132,14.499407378320752,6.562900613175256,16.066616116314886,3.98521798507861,2.410210673098927,3.989389952163041,0.37812297228609587,0.4568411997643398,0.5719040022459476,-0.11679830767383059,-0.5001838102469001,0.4669456725236394,5.48468515084979,2.793616194625269,5.558546464759143,36.83914563270619,10.010069007059126,39.129911202110435,-3409.0045158194766,-3052.9039123391467,-1951779.6841881664,0
4.782497909757674,3.5888393588039746,8.124354046362127,1.8563912669315408,1.276490443975847,3.0945764664544204,2.104242755354007,1.5762270529367235,4.085540376791137,1.9134407882430713,0.8029979972016762,1.3517027747869093,9.016879008447097,6.711035722832647,20.975737387888703,3.98521798507861,2.410210673098927,3.989389952163041,0.2879936910340714,0.3591485980948245,0.8101925412128436,-1.1941647577004426,-0.6439070675130418,1.3022096204871367,4.782497909757674,3.5888393588039746,8.124354046362127,27.300123830296343,15.364259665710112,82.69676884103134,-3409.0045158194766,-3052.9039123391467,-1951779.6841881664,0
5.807808648289719,3.50681372021892,6.4089813659654995,2.4428512476727025,1.428378280814323,2.829293690000655,3.1439035191043807,1.7161032294004543,3.5698409537210085,0.3550759958926694,0.41521693786360386,0.4558499053977113,17.330807716193767,7.513446920240585,18.615253730144417,3.98521798507861,2.410210673098927,3.989389952163041,0.8747468851621215,0.39138582070248584,0.8193186929439893,1.3691706652381699,-0.6237223789645521,0.648280946778411,5.8078086482897175,3.5068137202189185,6.408981365965501,43.61477063258577,15.242752762274318,53.81880658415674,-3409.0045158194766,-3052.9039123391467,-1951779.6841881664,0
8.602403586376063,5.869041811598905,6.07434852837323,4.128898641049177,2.740792786391093,3.3373462340600892,5.897661408242514,4.0401059548526845,4.461331106654602,1.4992694672962001,0.6496976983266821,0.6043742769682156,27.16952430320393,25.47006981326859,20.36224370150763,3.98521798507861,2.410210673098927,3.989389952163041,1.6482121260697373,2.41621119823943,1.532973710751719,2.487572860022385,8.571849517997657,2.3866919101956015,8.602403586376067,5.869041811598905,6.0743485283732275,108.78375754916884,50.76810791273227,56.80118528735397,-3409.0045158194766,-3052.9039123391467,-1951779.6841881664,0
35.39851273562557,37.51751849269725,3.9039482712682405,19.320208588634312,29.4753823175969,2.1172672935483647,28.819470120860593,43.45975733599863,2.500348882917437,7.52573973782235,6.023359850830048,1.651085109121774,103.0192427958457,140.68135660428638,8.916434694438342,3.98521798507861,2.410210673098927,3.989389952163041,1.6786945652721084,1.7846726929927457,1.054297891833598,1.473537070663931,1.6205269460423262,-0.39538728957735314,35.39851273562557,37.51751849269725,3.9039482712682405,2083.616561941423,3296.3147015537666,21.492556641044757,-3409.0045158194766,-3052.9039123391467,-1951779.6841881664,0
5.078392900262759,4.224840014286858,21.987677119306024,3.1103283128645507,4.568591128436826,36.24886141532055,12.665212407641851,33.775553150477556,345.7996798359137,0.10980660212402164,0.13009727546165514,0.05525057122339804,230.0828391477601,638.5503074600009,6601.156023999999,3.3007769665082742,1.3558152381061692,2.894959207559075,15.797580132025768,18.29153161968529,18.972701368968483,273.0041634846008,339.8023836282003,357.9765868933376,5.07839290026275,4.224840014286861,21.987677119306042,186.1976797801242,1158.6372637670538,120060.87651972318,-841.455955220949,-6007.023659414277,-1035173.7917501674,0
3.060810297367948,1.8909501481915263,4.027814744540615,1.150239735318341,0.6505642732486202,1.7865250298830413,1.4479660645528134,0.8009156147252319,2.2130325548991854,0.16632842681162285,0.22840325225827213,0.4805319101836516,7.218874837955162,3.652829562021002,10.13557631534201,3.3007769665082742,1.3558152381061692,2.894959207559075,0.3962637278636727,0.4399836974982082,0.4663949864109314,0.06865329801637543,-0.3530926767757405,-0.19863561419223918,3.0608102973679494,1.8909501481915267,4.027814744540617,11.465165400570239,4.217158284856252,21.12080470538241,-841.455955220949,-6007.023659414277,-1035173.7917501674,0
3.238718043030905,1.5267701825157005,3.0802815650591673,1.4398041792627174,0.6434234545336884,1.3089898728485538,1.772293565160951,0.8026981408977681,1.7115031155642677,0.6679407326839457,0.13009727546165514,0.05525057122339804,6.860474786392787,3.3739817967112558,7.347462540647454,3.3007769665082742,1.3558152381061692,2.894959207559075,0.38830858800679735,0.09712491735082925,0.9061484061826934,-0.7170902043832372,-0.4667330416300741,0.5859575912663715,3.2387180430309055,1.5267701825157005,3.0802815650591677,13.63031904336485,2.975351495619759,12.417377434629556,-841.455955220949,-6007.023659414277,-1035173.7917501674,0
3.9868287572111316,1.7194244513823391,3.8852887869829456,1.7198999271489206,0.811076756092752,1.5293631650944608,2.1807907156283837,1.0416346202714002,2.0474029696822384,0.10980660212402164,0.1395459052565715,0.08943085307798002,11.239285506798476,5.558203600736634,11.021503418036186,3.3007769665082742,1.3558152381061692,2.894959207559075,0.9176348480694956,1.1934302092460731,0.8277959835173366,1.0600938076656155,2.068248550170325,1.4518767705159519,3.986828757211133,1.7194244513823391,3.885288786982945,20.65065168469662,4.041423126159402,19.28732787851905,-841.455955220949,-6007.023659414277,-1035173.7917501674,0
4.494913533278345,1.9927974393348546,4.2913710270937555,1.9221600625084263,0.7438174471456067,1.7381348482501813,2.2634712134405475,0.9412288823768964,2.176685612727366,0.24694083529354321,0.16028681563307842,0.40849741002805134,9.671268237683678,5.280734123335191,11.394713354558615,3.3007769665082742,1.3558152381061692,2.894959207559075,0.19976640251537744,0.513654457466152,0.6899896853128117,-0.8762246927287802,0.7647360452689105,0.41304144078854765,4.494913533278345,1.9927974393348546,4.291371027093757,25.327549605722833,4.857153443240016,23.15382554883404,-841.455955220949,-6007.023659414277,-1035173.7917501674,0
7.949938479504749,4.857631521178061,2.736924799853834,3.1322835276700585,2.3896917196303464,1.111098411393162,4.389594151738374,3.163202824453103,1.4569832933874274,3.0840412687752727,0.9698820963311522,0.30809476870173075,23.19695637392346,13.248905804571553,6.155526019878051,3.3007769665082742,1.3558152381061692,2.894959207559075,1.755984117532778,1.1676086498854819,0.6591575906403991,3.537855427562679,0.8606188098681042,0.03903763390097703,7.949938479504749,4.857631521178061,2.736924799853834,82.47005864488601,33.60243610417078,9.613557677265025,-841.455955220949,-6007.023659414277,-1035173.7917501674,0
29.726348839916852,34.48798690366347,5.586684401698084,14.683320895847071,28.62921795742538,0.838528018505853,19.375247668993005,30.58695116163541,0.9346365183452611,12.074873277976883,1.7198356102682246,4.4168141722553775,66.43465107953453,78.33862367899407,6.71548936007605,3.3007769665082742,1.3558152381061692,2.894959207559075,1.1294619794423861,0.3252311358465269,0.01084537143616602,-0.22856401405889226,-1.60660092386933,-1.6914210931483327,29.726348839916852,34.48798690366347,5.586684401698084,1259.0560375872446,2124.982822031533,32.08458802560122,-841.455955220949,-6007.023659414277,-1035173.7917501674,0
3.9792439157973405,2.999008180273409,20.633908196599034,2.8695891990614215,2.664564722773038,33.99037152276492,13.009172489025701,15.555667610545365,349.5473668920391,0.056079338899984996,0.05331064122635443,0.13144465115597648,254.90354844395998,311.30816642700006,7192.602299499999,2.483191297258361,1.358634862686292,3.1733464576089716,17.32866480997913,18.608686121473372,20.468309450243723,326.38240163753034,363.1912384651522,416.96866033591454,3.9792439157973343,2.9990081802734063,20.63390819659903,185.07295099063336,250.97284487511695,122609.11986862349,-864.9948558812487,-1146.1788173725113,-1142222.0304573707,0
2.3210762898225314,1.4581668588565078,3.322257181911741,0.9063855633878145,0.5486371638845893,1.4587231167076145,1.101089326120147,0.7111824925485858,1.7882235560083652,0.06314124119007555,0.05331064122635443,0.3314738765287521,5.506464955528083,3.4257441680271774,9.499630737961578,2.483191297258361,1.358634862686292,3.1733464576089716,0.25486774461217715,0.5389092462322997,0.7897911529164882,-0.24306630720316402,0.08679954928896283,0.6412466900105893,2.321076289822532,1.458166858856508,3.3222571819117417,6.599792847272049,2.6320311259750744,14.23513626902735,-864.9948558812487,-1146.1788173725113,-1142222.0304573707,0
2.228627908861563,1.4810722689740388,3.4243376909366074,1.1093966549407144,0.6733180117196167,1.7235222983069993,1.3068959158848608,0.8537167279967963,1.9529394502056625,0.6960933258100995,0.1079833038479569,0.46160146407975183,4.868334780371457,3.4929984614176615,6.938015673508867,2.483191297258361,1.358634862686292,3.1733464576089716,0.8152708905729167,0.6889767263011821,0.2719703598059132,-0.6673642318487318,0.11807463180482847,-1.23470522112689,2.2286279088615624,1.481072268974039,3.4243376909366074,6.67475929111319,2.922407317585464,15.540061117738652,-864.9948558812487,-1146.1788173725113,-1142222.0304573707,0
3.5550351212761018,1.9796607591969233,4.366603782758996,1.4487747163547582,0.8653019183351551,1.9183725127643747,1.7873816772995461,1.0922106496903028,2.3229394383462014,0.056079338899984996,0.16933596116643307,0.3790665192037936,8.674344406242618,6.104799932266544,10.684564925889944,2.483191297258361,1.358634862686292,3.1733464576089716,0.5545593434075995,0.9109517367881517,0.23704922951040486,-0.12495718727855332,0.8417929184908086,-0.636312235373858,3.5550351212761027,1.9796607591969246,4.366603782758996,15.83300797385274,5.111980824801058,24.463276229829336,-864.9948558812487,-1146.1788173725113,-1142222.0304573707,0
4.920048233774281,2.6387368034455876,5.008981371291162,1.8302460727231689,1.12477039697535,2.5676038401926644,2.377527482958265,1.4295968565212676,3.0802061304247284,1.2151644165789337,0.5142913689761854,0.13144465115597648,11.267594692639545,6.805374920208334,11.380253391326013,2.483191297258361,1.358634862686292,3.1733464576089716,0.8778304681278547,0.9141366746182613,0.45590463994261127,0.5647567159987679,0.9809837987298495,-0.7108434313716598,4.920048233774281,2.6387368034455876,5.008981371291163,29.859511554887288,9.006679090033726,34.57756418384797,-864.9948558812487,-1146.1788173725113,-1142222.0304573707,0
7.2880627897435994,6.310924496875634,4.200112118537469,4.365134251440856,2.3192049849315772,1.4997526602450573,5.2500964028010015,3.1180070848681836,2.0339082141497555,0.6197200831103892,1.012548574997504,1.8382057411171477,19.003478172954388,15.40660472235094,9.427335000593725,2.483191297258361,1.358634862686292,3.1733464576089716,0.8600968307873561,0.996099913487415,1.2032025371040407,-0.461434900557276,1.6416585999160738,0.5676674521542613,7.2880627897435994,6.310924496875635,4.200112118537469,80.67937146594927,49.54973618655316,21.777724431871153,-864.9948558812487,-1146.1788173725113,-1142222.0304573707,0
29.919071155853505,28.861677829114374,3.7182523977079467,14.451314371886804,11.748840014469556,1.6082875408446837,17.75818456916553,16.063458010970567,1.8789252027397736,15.102871427120848,11.448806177918389,1.7147987973500323,66.53691354568086,61.61428991094663,7.123671251332931,2.483191297258361,1.358634862686292,3.1733464576089716,1.284234293509765,1.1295836360976652,0.6518009375827511,0.15194826418523633,0.16114870637126177,-0.8139572055299391,29.919071155853505,28.861677829114374,3.7182523977079467,1210.5039380215737,1091.0311303818069,17.355760810551597,-864.9948558812487,-1146.1788173725113,-1142222.0304573707,0
5.598336170591303,4.9862890745747785,22.119619378008046,3.8567556573967763,4.533775308105789,36.17291422227256,20.184365948441478,42.00054291777292,376.79678191789736,0.3812744320874759,0.11658140068572603,0.2747833479943057,398.94718888952,876.14541805,7853.5555485,3.2160518864313494,2.092586144929248,2.9804282000763314,17.59551064236066,20.609783609716768,20.735395155876464,332.85263848355453,424.4488733854375,427.9719118580803,5.598336170591306,4.98628907457478,22.11961937800803,438.7499966195547,1788.9086841229093,142465.0924251115,-2217.388429328231,-9657.849574411668,-1246926.002994821,0
3.2780416486697783,2.4908323063767526,3.576505598795761,1.545903014821777,1.0341271331314592,1.5392206185876083,1.8889849348743037,1.2904798124026875,1.8923400529537475,0.3812744320874759,0.13447044836705468,0.37333479846709383,9.596700340864297,6.419601359995121,9.998208995635855,3.2160518864313494,2.092586144929248,2.9804282000763314,0.7393054277118437,0.6245125606433508,0.6310612960464875,-0.03163842997742883,0.3025645231901284,-0.05448599122075626,3.278041648669777,2.4908323063767526,3.57650559879576,14.31382113459575,7.869583724709007,16.37234317423041,-2217.388429328231,-9657.849574411668,-1246926.002994821,0
4.7733275709169005,3.439153991857261,3.9421799511676774,1.9320005414624095,0.9384432455561901,1.8005261180920005,2.2211789427940265,1.1704829612336278,2.2634652815012593,1.9593482686049588,0.8715450597093473,0.4239074844521052,9.537409438500621,5.477305226977033,9.538483064603426,3.2160518864313494,2.092586144929248,2.9804282000763314,0.4780453102531986,-0.7272279676353326,0.7519366746049175,-0.8986835928985144,-0.25897231184728886,0.06678338856212829,4.7733275709169,3.439153991857261,3.942179951167678,27.71829199518702,13.197810542245975,20.66405784794997,-2217.388429328231,-9657.849574411668,-1246926.002994821,0
4.49027097265996,3.016547907583228,4.982797932141124,1.985342494122602,1.0264809151819339,2.147005569468127,2.5288927048530794,1.2558851878483244,2.633368191207181,0.4021694381574146,0.5149346000467648,0.4273832559422258,11.46871134099847,6.977123183612734,12.438376574061916,3.2160518864313494,2.092586144929248,2.9804282000763314,0.7279304348142122,0.4153181109956695,0.5854788032619548,0.08921547598010005,-0.02157206334638273,-0.24467537259325578,4.490270972659964,3.0165479075832273,4.982797932141125,26.55783172057177,10.676808883801568,31.76290326301165,-2217.388429328231,-9657.849574411668,-1246926.002994821,0
4.42041093757977,3.3560513396343903,4.683307644838251,1.8002800135292008,1.3176055508574878,1.9198696955605639,2.1639896281192152,1.5753592131551966,2.407105688484707,1.56343843734351,0.3079912451053797,0.5051902416089449,9.386823355914999,7.021086873870092,11.807941913671206,3.2160518864313494,2.092586144929248,2.9804282000763314,0.6151466340395422,0.2853128097732853,0.578607514408942,-0.5206005812449561,-0.5100763423601427,0.22661136942573723,4.420410937579767,3.3560513396343903,4.683307644838253,24.222883967682375,13.744837244734743,27.727528291735855,-2217.388429328231,-9657.849574411668,-1246926.002994821,0
8.623294862681826,4.441197341667059,2.697369575308582,3.7611344552204344,2.196561237834644,1.1055168657967571,4.61431620516398,2.822938347577137,1.3264018135116686,1.3789071076141302,0.2865213812130361,0.2747833479943057,21.035877910304848,13.060739497229836,5.026783593241675,3.2160518864313494,2.092586144929248,2.9804282000763314,0.871294439381492,1.1394278459627032,0.025677599416211214,0.27401947242809754,1.407626343271942,-0.9165897786430617,8.623294862681824,4.441197341667059,2.6973695753085813,95.65312832999365,27.693214741852092,9.035144396687441,-2217.388429328231,-9657.849574411668,-1246926.002994821,0
51.97409005493662,19.035592525097,4.015703402762683,30.10963430553885,9.79018561062679,1.4365767139035464,37.85143785710784,12.714329883710862,1.8696894401811608,16.43681104980921,8.248893217399248,1.006564736373008,123.10720243624046,43.51105655166397,6.741090267575422,3.2160518864313494,2.092586144929248,2.9804282000763314,1.0967726720100834,1.2329497213068985,-0.19800055513229572,-0.311740908528523,-0.10241884773061072,-0.7450187607906611,51.97409005493662,19.035592525097,4.015703402762683,4134.037384889158,524.0079671733517,19.621612421684727,-2217.388429328231,-9657.849574411668,-1246926.002994821,0
8.949848956396147,5.066756798335826,31.340611797551055,7.7351678317107995,4.100582952993241,49.93102402218704,60.429154737767085,22.958069671495245,627.990382022699,0.15779180061786777,0.08282155132281076,0.13852679679233673,1487.0728434791001,564.449248584,15805.873344,4.6056384454872905,2.6318590037429965,4.61494740421991,23.364753167692612,22.96401031751763,25.07796366786225,564.4551223575504,554.8281741210358,626.9367835937487,8.949848956396162,5.066756798335816,31.34061179755112,3731.7825386633035,552.7449874947118,395354.15386086045,-16459.2990533758,-1860.8122319097572,-2667648.049110534,0
2.3840567605776193,1.7072352436711469,3.1991773052579986,0.9896933084077731,0.6638604566206264,1.2552006157534414,1.2941358713180047,0.8275194573739297,1.6073529649614928,0.20987913368976127,0.19228098917223224,0.22682004209651893,8.740208025777227,4.710572005220798,8.874008985011258,4.6056384454872905,2.6318590037429965,4.61494740421991,1.1742893984376879,0.5382915777621285,0.7217061745585848,2.5779433333248143,0.13753105065749072,0.6732054857152603,2.3840567605776175,1.7072352436711462,3.1991773052579964,7.35851429108785,3.5994406295653216,12.818318984448315,-16459.2990533758,-1860.8122319097572,-2667648.049110534,0
5.416457082195849,3.1703139537691,5.695984333736715,2.3860489001147416,1.4336362848597037,2.6183040044765513,2.9482476256942087,1.793897891766924,3.2571623209934164,0.15779180061786777,0.08282155132281076,0.13852679679233673,16.729448252472416,11.494109606850323,19.475380596878942,4.6056384454872905,2.6318590037429965,4.61494740421991,0.7063155379175222,0.8555822230200584,0.8461286061615585,0.2943322152096006,1.094582284124857,0.973108723791321,5.416457082195851,3.170313953769101,5.695984333736717,38.03017138568113,13.268960211548885,43.053343915473334,-16459.2990533758,-1860.8122319097572,-2667648.049110534,0
4.819084185608789,3.4262909701683233,6.508128049707033,1.9758845345592815,1.733069335235969,2.6005637802032613,2.301524199594411,2.14692113909839,3.1336153817001597,0.773579372200751,1.012154099391251,1.8237634106453864,9.948596967845,10.412396930660513,13.53253207946623,4.6056384454872905,2.6318590037429965,4.61494740421991,0.19882444390851275,1.157120659940574,0.53040966656733,-0.7946032912241101,1.5429531221162236,-0.6625322486556042,4.819084185608789,3.4262909701683233,6.508128049707032,28.52058602930341,16.348740189764516,52.17527607181129,-16459.2990533758,-1860.8122319097572,-2667648.049110534,0
6.008701199420373,3.918515254289904,7.447188843634362,2.347731726504649,1.7099131260864897,3.0046417013169324,2.773214338306488,2.2850206030979154,3.7715407826738883,1.4812824484168416,0.33980095801788124,1.343291139758014,10.913338967871537,9.74823920089262,14.070250994077858,4.6056384454872905,2.6318590037429965,4.61494740421991,-0.03188133930341126,0.4820919210970469,0.07770119164206793,-1.0835715801659471,0.27928560674393976,-0.8274711177146319,6.008701199420372,3.918515254289903,7.447188843634362,43.795207870104505,20.57608095468463,69.68514154812445,-16459.2990533758,-1860.8122319097572,-2667648.049110534,0
9.396420012173198,7.041440441710849,9.924248975914802,4.488239190509125,4.258671074001092,4.525201667199019,6.395219567380183,6.408938706271449,5.590471476630807,0.7075710062658023,0.3614908294252622,0.8252586588397144,44.92775666822779,39.780391186983415,26.369626400776266,4.6056384454872905,2.6318590037429965,4.61494740421991,2.3541234859184086,2.5555073938100374,0.6293768455205945,9.341252014425578,8.107680572176182,-0.11555128097869138,9.396420012173191,7.041440441710849,9.924248975914804,129.1915423601712,90.65637883490542,129.74408906696868,-16459.2990533758,-1860.8122319097572,-2667648.049110534,0
96.89753741360535,41.800752609822666,10.525606982145385,72.4321476808225,13.664086332314817,8.161954541362835,97.87897785473405,14.692392173033653,11.121593368945783,43.62483250318601,28.9897859200258,2.029580632985617,314.19398045607284,65.89803735533712,35.01147060623389,4.6056384454872905,2.6318590037429965,4.61494740421991,1.7341319809682116,0.7472317068860099,1.6632062229154003,1.0942181138360976,-1.3222510708217048,0.992005607414213,96.89753741360535,41.800752609822666,10.525606982145385,18969.427062708564,1963.169306513817,234.4782414067665,-16459.2990533758,-1860.8122319097572,-2667648.049110534,0
5.282654744492927,4.0339073838305515,18.898966729382686,3.6038025724609493,3.884668974694505,29.080463189101334,15.748938342865326,29.43184033063982,331.84689715233196,0.23836100466973903,0.15021234335329658,0.2638142292914009,339.98876860015986,670.1276848800006,7585.775633500006,4.111087737688598,2.083796544090415,3.8485370502341816,18.94567144936489,22.25666142884286,22.756063147885683,391.77650901773166,500.5469284282122,515.8930541155302,5.282654744492927,4.033907383830549,18.898966729382725,275.9355000768872,882.5056340295992,110479.53409306875,-1702.5843653276813,-5618.254226040506,-1205420.9947215002,0
3.3544165502238825,1.9225757689304805,3.361071459365587,1.2922934522861167,0.8446956042163694,1.6550224493965675,1.6790120950162488,1.0567998676845047,2.0554163624670965,0.489799805504856,0.1748984394251689,0.32346676506907074,8.030969546591704,5.024375640899337,8.487556293765854,4.111087737688598,2.083796544090415,3.8485370502341816,0.9500409088120221,0.4808876327375489,0.7982813654926378,0.8209877823399165,0.0011959063641677758,-0.11019624764000513,3.354416550223882,1.9225757689304814,3.361071459365588,14.071192007626736,4.813123547616619,15.521537778059395,-1702.5843653276813,-5618.254226040506,-1205420.9947215002,0
4.327587111373346,2.289285071271806,3.9948158241236853,1.5909427963526237,0.5629207616270541,1.3718584498909003,2.0672505885179566,0.7269967435738843,1.592620049881785,1.1707297760119788,0.9657780986853202,1.3851893082030284,10.007943988343357,4.0450453428490265,7.366487119051301,4.111087737688598,2.083796544090415,3.8485370502341816,0.9379055316843038,0.49264480615883754,0.3946186218905805,1.1268113701564788,0.2221680308890006,-0.8162966113639563,4.3275871113733455,2.289285071271806,3.9948158241236853,23.00153520225254,5.76935040271499,18.494992091954458,-1702.5843653276813,-5618.254226040506,-1205420.9947215002,0
6.111236731252134,3.1207411373059855,6.917716910463962,2.673004739957716,1.4356725039850515,3.146007369138993,3.3783603092072076,1.9347409293038142,4.121743765623906,0.7295965129672725,0.15021234335329658,0.2638142292914009,18.545129998472866,10.863149406006805,23.113414952729713,4.111087737688598,2.083796544090415,3.8485370502341816,0.948570254946022,1.3672285103724549,1.0971252161351528,1.132309716248118,2.773447498571336,1.4192609774042575,6.111236731252137,3.1207411373059855,6.917716910463965,48.76053276423192,13.482247709597242,64.84357892277863,-1702.5843653276813,-5618.254226040506,-1205420.9947215002,0
7.896455415736874,4.070080261355748,7.500413270012635,2.8957990154618787,1.9088043389943403,3.4854710295060713,3.3970341745548676,2.322330188891127,4.539964107489393,1.3070771156540986,0.6350901008670952,1.6388679034352773,14.46810924831396,8.879138142183733,20.481056728693257,4.111087737688598,2.083796544090415,3.8485370502341816,0.08907284667124538,0.6582291321220302,1.062158100655861,-0.765032237976762,-0.4544856569621678,0.8888855899287575,7.896455415736875,4.070080261355748,7.500413270012639,73.8938493158139,21.958770840112773,76.86747331827364,-1702.5843653276813,-5618.254226040506,-1205420.9947215002,0
11.314642359067227,12.381533860969194,5.978662530045011,5.942826209494646,6.996655788854485,3.251031404448036,7.459625810111013,8.660263529335861,4.4204875662756455,1.6024933860370412,2.4910450597209315,0.8936337671312484,27.686759325027566,37.310454646515204,21.686422496997594,4.111087737688598,2.083796544090415,3.8485370502341816,0.8942807857090284,1.051165449957476,1.6526855689524391,-0.33055054192008404,0.5241687189706874,3.3418289161175494,11.314642359067227,12.381533860969194,5.978662530045011,183.66714894047274,228.30254514787154,55.285115971761805,-1702.5843653276813,-5618.254226040506,-1205420.9947215002,0
105.70563253680831,29.365601400345486,8.33614380661134,0.0,0.0,0.0,0.0,0.0,0.0,105.70563253680831,29.365601400345486,8.33614380661134,105.70563253680831,29.365601400345486,8.33614380661134,4.111087737688598,2.083796544090415,3.8485370502341816,0.0,0.0,0.0,-3.0,-3.0,-3.0,105.70563253680831,29.365601400345486,8.33614380661134,11173.680750006748,862.3385456039728,69.49129356450459,-1702.5843653276813,-5618.254226040506,-1205420.9947215002,0
3.469826337807003,4.82570649460638,19.665898773966713,2.498518801193918,4.909437023885389,33.03779418769969,6.2134370361668765,20.707491357845,324.97109801210246,0.15905817534879643,0.12590956509138748,0.03176895953585071,68.16317192444306,375.4152376547,6395.960177,2.024882367930874,2.2406204654443567,2.4552388294025507,7.018295324146757,15.320234289469177,19.56953504497753,57.92735320926124,264.4781510079353,380.97872458921347,3.4698263378070013,4.825706494606386,19.665898773966703,50.64649461694937,452.08764150731156,105992.96211777935,-349.49580348418294,-2660.00900814466,-1003539.035520772,0
2.06502523521958,1.6918922842562467,2.1966628169920592,0.7397888900173796,0.6966525981194859,1.003212232319563,0.955973319913868,0.8305524106371683,1.200111394959994,0.15905817534879643,0.3265820300517501,0.3370597935150802,4.726552088328023,3.954315635040623,5.918003286705111,2.024882367930874,2.2406204654443567,2.4552388294025507,0.22130562130906878,0.664137541009355,0.6968733864666526,0.10210430804935466,-0.22054442255762963,0.23892844442897365,2.0650252352195806,1.6918922842562463,2.1966628169920592,5.178214210480826,3.55231680834103,6.265594891868313,-349.49580348418294,-2660.00900814466,-1003539.035520772,0
1.9070135195029245,1.8896110828994652,2.5126329222799977,1.0032033228606603,0.6853130857535426,1.1815728110329848,1.1021499670985246,0.7941528472501913,1.4276968177477083,0.507283487289662,0.7633849270879941,0.6764022084289533,4.391275712039186,3.2013855598089527,6.234050484077609,2.024882367930874,2.2406204654443567,2.4552388294025507,0.47478903110926374,0.282869892427922,0.8926895082497847,-0.8770130207634295,-1.208945203789265,0.19928882130871006,1.9070135195029245,1.8896110828994652,2.5126329222799977,4.851435113542209,4.201308789412074,8.351642405532253,-349.49580348418294,-2660.00900814466,-1003539.035520772,0
2.570228953417364,2.7803842402704984,3.4716854937934594,1.0848898935711755,1.0128522166363507,1.2911807428290993,1.4395943545534309,1.2859965659388415,1.6250077559624037,0.2224660420039139,0.35721524962513,0.03176895953585071,7.821804233329762,7.49729644782657,9.103276358150897,2.024882367930874,2.2406204654443567,2.4552388294025507,1.217764227694449,0.6837934796106288,0.2794754902936696,2.0130778896864205,0.6683657633340232,0.19623022634640863,2.5702289534173635,2.780384240270498,3.4716854937934607,8.678508778647023,9.384323691151046,14.69325037475391,-349.49580348418294,-2660.00900814466,-1003539.035520772,0
4.705722654472861,5.323235072797735,5.392161050928855,1.6117835697488905,1.875561344142871,1.9125932487213007,2.0320355443300713,2.297820160347293,2.361920788684796,1.2356575542980321,0.44605315263500245,1.6796145234764994,9.746776242915713,9.91093767975208,12.19595523623612,2.024882367930874,2.2406204654443567,2.4552388294025507,0.6239140053754495,-0.06011987592189931,0.45561363937260735,-0.06966462822709918,-0.4515504552244738,0.08285820236340724,4.7057226544728605,5.323235072797735,5.392161050928855,26.272994154239914,33.61680912956238,34.65407061117558,-349.49580348418294,-2660.00900814466,-1003539.035520772,0
17.1826548588869,22.875217391932104,3.2953270016459806,10.925066584323114,13.694295633346687,1.1480933000162434,15.389931229970962,18.16676767389845,1.4873780690770966,3.5841601046884497,2.7012439515313584,0.9679056964352384,68.16317192444306,80.61703130225273,7.375838526075845,2.024882367930874,2.2406204654443567,2.4552388294025507,1.973817953152284,1.5759397726614655,0.7999100298113405,3.4660370783123158,2.387384393997432,0.7296784095922986,17.1826548588869,22.875217391932104,3.2953270016459806,532.0936112628651,853.3070184455546,13.071473568148601,-349.49580348418294,-2660.00900814466,-1003539.035520772,0
50.79923635727253,76.77459020442586,3.7625278291477695,10.069096863784402,20.516915523297797,3.0339216219037635,10.069096863784402,20.516915523297797,3.033921621903763,40.730139493488124,56.257674681128066,0.7286062072440064,60.86833322105693,97.29150572772366,6.796449451051533,2.024882367930874,2.2406204654443567,2.4552388294025507,0.0,0.0,2.544351640963122e-16,-2.0,-2.0,-1.9999999999999998,50.79923635727253,76.77459020442586,3.7625278291477695,2681.949126134312,6315.281523647662,23.361296072966592,-349.49580348418294,-2660.00900814466,-1003539.035520772,0
6.005026749003802,5.153554401392167,23.797653502259053,3.937239921379779,4.7777412575854115,37.311430741676446,17.475353486982737,33.203769118419075,369.37591512339486,0.07512640917714969,0.2670416388539252,0.2129748910728192,335.16564859412,646.6192175889998,7318.1823635,3.5498611211755393,2.11752936697483,3.6942650426685013,17.223881185070116,18.566498508142065,19.696110813379292,319.24958917388983,353.7135946130562,385.9588094220778,6.005026749003801,5.1535544013921655,23.797653502259013,341.4483257512507,1129.0494066373885,137004.89498545896,-1590.7807301100286,-5780.063419185252,-1158687.436482206,0
3.957431388854157,2.1377861553191386,4.416680455239732,1.697279402828816,0.9790132885850691,1.7496488170162656,2.1136234510474567,1.1694665819549956,2.1735819266096015,0.4640199928052855,0.2951997224440257,0.5131626372148027,9.851955957975738,5.229973588098474,10.359396337906897,3.5498611211755393,2.11752936697483,3.6942650426685013,0.7259514600530493,0.4075899346818827,0.5405048918700057,0.10556676097905893,-0.5624153612652374,-0.12405228783159172,3.957431388854157,2.1377861553191386,4.416680455239732,20.128667290305902,5.937781732183683,24.23152463538055,-1590.7807301100286,-5780.063419185252,-1158687.436482206,0
3.433230050742636,2.369153715277092,4.1830614149846905,1.5672141219693987,0.8390506585191835,1.3695063687640447,2.1017595881144544,1.0036476649379997,1.6548186187293414,0.14102094156281397,0.2670416388539252,1.5538705550543466,9.357690419941743,4.401986744523962,8.140811205450582,3.5498611211755393,2.11752936697483,3.6942650426685013,1.019378605101502,-0.18845015523801714,0.4703929111508072,0.9980700135718226,-0.7511684683739714,-0.489519882298195,3.4332300507426354,2.369153715277091,4.18306141498469,16.204461947553316,6.620197961946745,20.236427462427002,-1590.7807301100286,-5780.063419185252,-1158687.436482206,0
4.672880512449065,2.668180251885313,5.236239811488183,1.7308855643565109,1.0909663631827342,2.172015190849244,2.146045704456342,1.2977340154956483,2.648670222101473,1.0023943909598145,0.6090368041026102,0.6343082437810026,10.476599638188427,6.636398286201281,12.637958985982657,3.5498611211755393,2.11752936697483,3.6942650426685013,0.4420071080021917,0.5277597357626554,0.4008197682977961,-0.3684424154953643,-0.2929599387503212,-0.15965050272330306,4.6728805124490655,2.6681802518853135,5.236239811488183,26.44132444924176,8.803299431525234,34.43366130886087,-1590.7807301100286,-5780.063419185252,-1158687.436482206,0
4.805464535967031,2.8858935491256266,5.727384885784914,2.1555192534513568,1.3344563261714777,2.461469380045829,2.7024670722372837,1.712888102881409,3.1923503018486907,0.07512640917714969,0.3886202279692566,0.5602329227668441,13.633184834907318,9.290292329813706,17.55407849134102,3.5498611211755393,2.11752936697483,3.6942650426685013,0.6928155696668951,1.031537645716947,0.7965747838110444,0.3496176730658642,1.1509031997262644,0.6420121293451739,4.80546453596703,2.8858935491256243,5.72738488578491,30.395817682963575,11.262367229877567,42.99403807963086,-1590.7807301100286,-5780.063419185252,-1158687.436482206,0
6.646853328303814,4.667884324762795,4.956076730136744,3.1512638028354827,2.5150255518633746,1.9440552076489825,4.167615132195687,2.950556190690765,2.3852638622605817,0.6364309111648407,0.62494755748585,0.2129748910728192,19.032448416244538,11.672995137096894,11.762350062779307,3.5498611211755393,2.11752936697483,3.6942650426685013,1.1857143096187621,0.6014362538901491,0.5873155163792931,0.9048329254048872,-0.6605742165267521,-0.030264841161358635,6.646853328303812,4.667884324762797,4.956076730136745,61.54967505808994,30.49492590378982,30.2521802476092,-1590.7807301100286,-5780.063419185252,-1158687.436482206,0
32.300365091311036,32.215033412993044,6.0076877688583,11.65892893015895,23.495246004520936,3.5984411590008882,14.28241163472854,36.17699236907329,4.863549442185033,10.573701869246047,10.573470382839869,0.7350722787684956,56.80102423550965,126.19601743107681,17.229932059053606,3.5498611211755393,2.11752936697483,3.6942650426685013,0.20755008807866876,2.109580054814307,1.263340045938735,-0.8770434670253868,2.7374873250683267,0.810763084843793,32.300365091311036,32.21503341299305,6.007687768858301,1247.3008671358136,2346.5831546722457,59.74642550466798,-1590.7807301100286,-5780.063419185252,-1158687.436482206,0
56.05564916444023,38.9364733627066,73.99733262899231,35.98234007243797,23.216131042437603,58.09199839601774,85.6691688729355,36.97652391888354,534.9820409272935,1.8086922215993502,0.6841632404063291,2.155346912831768,1814.2963736860017,425.0554225102606,13759.1771737,38.86445012804845,27.099839240954598,38.52905841975489,13.952398252588432,3.8977971451626394,25.401011591761005,270.2130233711882,26.295156922487802,646.7704266676187,56.05564916444022,38.93647336270659,73.99733262899235,10481.442298626349,2883.3122790485268,291681.3893509381,-95977.54393801499,-30410.904653581765,-2334816.328586255,2
31.11072437762139,21.741074392716207,36.69577693295522,12.668305540403395,9.150099477352397,14.37962078998214,15.506021224859026,11.626632311250566,18.006687586127324,1.8086922215993502,0.6841632404063291,2.155346912831768,86.25007313217093,75.23537343788117,104.35861275230226,38.86445012804845,27.099839240954598,38.52905841975489,0.5021108733450744,0.7848115069642555,0.650404439506538,0.04917007644342064,0.9908641155612781,0.18291726164970346,31.110724377621388,21.741074392716207,36.6957769329552,1208.313865526104,607.852894650636,1670.8208425375983,-95977.54393801499,-30410.904653581765,-2334816.328586255,2
36.43923794268848,34.81907227585741,51.25745331689209,14.292531753114105,15.38732878895347,24.458705910936377,18.233020431568377,19.99723810340878,30.50935869714452,4.03116421962132,6.535337666317932,2.891390779087126,88.0307008291884,103.1326910196337,132.2373341333384,38.86445012804845,27.099839240954598,38.52905841975489,0.5758241678043057,1.0623675593805273,0.7351719575056197,0.5585612396773887,1.2043668615033205,-0.06513217913377911,36.43923794268848,34.8190722758574,51.25745331689209,1660.261095901857,1612.2573259158057,3558.1474886444,-95977.54393801499,-30410.904653581765,-2334816.328586255,2
41.78050591254338,52.896446965651954,65.10740156120062,16.39112751139322,23.6409756761727,27.562629862561398,20.469124074439105,28.60097589665297,33.25500883465372,14.605973081098476,16.217048221319004,9.970999745276835,91.21568159003297,123.99832604962792,133.2700735846034,38.86445012804845,27.099839240954598,38.52905841975489,0.9524566793069685,0.7036839735025507,0.43876176299541214,0.10164352829846068,-0.18536971883160946,-0.703138556308728,41.78050591254338,52.896446965651954,65.10740156120062,2164.5957146828546,3616.049923830953,5344.869350644327,-95977.54393801499,-30410.904653581765,-2334816.328586255,2
77.78014868393389,62.09692855296606,91.7433031696853,34.49113929464285,28.32639530691067,42.66023671199866,47.935952077064755,35.18270510617342,54.31832123922948,7.757186419007364,7.026597835343728,14.274541460931633,299.3145149268132,186.9366154446237,287.8323217100635,38.86445012804845,27.099839240954598,38.52905841975489,1.4990350334348628,1.0004461575001156,1.1337045817263522,3.5749131061043515,0.6215908046454937,1.2990079939572636,77.78014868393386,62.09692855296605,91.74330316968525,8347.607030829506,5093.851274300133,11367.313698732907,-95977.54393801499,-30410.904653581765,-2334816.328586255,2
75.858248616862,37.40801300094424,43.801440392635584,35.867200109192424,16.263419489711158,19.56354122895659,43.35450611107789,20.693116718338388,24.644210237522493,5.476333414057701,5.035543817950085,8.713428083788104,205.2542725496788,104.42714755110838,113.17107979264222,38.86445012804845,27.099839240954598,38.52905841975489,0.41956576668393314,0.8813421572496225,0.9267066737363834,-0.29818982715286957,0.9274517355367156,0.26219349231059663,75.85824861686201,37.40801300094425,43.801440392635584,7634.087083353138,1827.5645161975897,2525.9032787008164,-95977.54393801499,-30410.904653581765,-2334816.328586255,2
215.54449022919326,140.93646958908607,50.339240064933506,104.0335050780331,79.61299455630702,30.452553763830995,137.29587339335964,104.65529265433494,38.41288708916997,59.64241463029079,18.801483037986316,6.905685505424757,613.870709145396,425.0554225102606,139.80500061818665,38.86445012804845,27.099839240954598,38.52905841975489,1.291992625026655,1.1994808519053253,1.0022602929807924,1.5372093661698774,0.8882377922715836,-0.02567339034820293,215.54449022919326,140.93646958908607,50.339240064933506,65309.58411900821,30815.818740799874,4009.588984840327,-95977.54393801499,-30410.904653581765,-2334816.328586255,2
34.15102264143106,24.91695061237873,44.00399172913359,23.00646945575817,15.251733324011514,36.68232653920229,69.83897655041869,24.391319521526,327.39884399516103,2.9761025201206737,0.17488654275703328,0.2083245938137485,1302.29998848866,200.69842374216,6664.4859311,25.400609120798592,19.266260606983067,21.11882964745627,14.892385135881868,3.2455826070265137,20.118157891313132,262.5441002312734,14.65760819707192,403.8254198096715,34.15102264143106,24.916950612378738,44.00399172913355,6043.774993065472,1215.7908958208964,109126.35433746544,-55872.837249033866,-13648.635856710702,-1024466.8915303868,2
21.78447469124087,15.00674526236816,22.729570361589143,7.241163861665901,5.631850161415244,10.492916193914464,9.266089682160278,7.0576420954431445,13.022394453173115,5.360563740979779,3.5700612828867144,4.194522239380211,40.67347337971846,32.0513838355736,51.80477854756281,25.400609120798592,19.266260606983067,21.11882964745627,0.19878432607601998,0.4516473117287168,0.8499368402652066,-0.4961226831631804,-0.35253038609810705,-0.1551885090917131,21.78447469124087,15.00674526236816,22.729570361589147,560.4237555711512,275.0127153169803,686.2161261164657,-55872.837249033866,-13648.635856710702,-1024466.8915303868,2
16.491171513032896,16.472631243661194,25.43340878814055,5.3933351927126045,7.438906360997031,11.280812421101405,6.683844832904047,9.371590944631974,12.620882330892314,4.705467687227894,2.61079637812819,5.699806119057969,29.17784410466012,40.80700416620645,47.540721832384634,25.400609120798592,19.266260606983067,21.11882964745627,0.20602080840747758,0.8453359910850864,-0.129728367810392,-0.5836979718269375,0.3560259612545851,-1.2355643709818354,16.491171513032892,16.472631243661198,25.433408788140547,316.6325196226059,359.17429692315113,806.1449533948944,-55872.837249033866,-13648.635856710702,-1024466.8915303868,2
26.64819735208162,19.570402446488263,26.909926096095475,11.445726386360407,8.144148048323466,11.743584708904367,14.151068176432704,10.022880172946733,14.993527331643346,2.9761025201206737,1.7060471257104446,0.2083245938137485,72.54029147503617,52.669775429239934,88.28241583401733,25.400609120798592,19.266260606983067,21.11882964745627,0.646233815401106,0.5423947511231901,0.9303155764327348,0.24698101112045645,-0.09482895952838444,1.5019732319369385,26.648197352081613,19.570402446488274,26.909926096095468,910.3791526495357,483.4587788787628,948.9499843420558,-55872.837249033866,-13648.635856710702,-1024466.8915303868,2
45.770703923347305,33.16437085176979,40.108093050395084,18.821474398549856,16.245782383482254,15.902834068977212,23.119172060440714,20.451000825118584,19.045201782030215,5.9506842948187355,0.31236459943016837,5.806523236928763,96.6265320007418,85.24116476799334,78.70550974241604,25.400609120798592,19.266260606983067,21.11882964745627,0.27080040543504025,0.7815781401493074,0.1334768642857856,-0.5616618807319802,0.49064565510013525,-0.7634741749711025,45.770703923347305,33.16437085176978,40.10809305039509,2629.4534543989835,1518.118928742718,1971.3788390573977,-55872.837249033866,-13648.635856710702,-1024466.8915303868,2
57.841835398134556,47.86793436838675,46.02675814744346,21.374581666045586,23.032063082540372,18.20279093272003,25.80294879583885,28.086746546331312,21.661672112551063,19.525109535102573,14.748445129582764,19.21767391795393,104.1684161262585,116.99373710634491,93.39170143723736,25.400609120798592,19.266260606983067,21.11882964745627,0.2766511709790679,0.8667395460906303,0.6409507269246426,-0.9961373742381037,0.02725029383899802,-0.629068158620429,57.841835398134556,47.86793436838675,46.02675814744346,4011.4700887855724,3080.204472254034,2587.6905042749254,-55872.837249033866,-13648.635856710702,-1024466.8915303868,2
74.62995940566056,59.214064614843615,38.90772978133768,41.74345058040322,29.456528478118358,16.818934765175946,60.06740952153179,38.47625054933473,21.528332678506377,6.486794656725099,1.9369164785636552,10.078703753458376,320.3077705459854,185.19756201994645,93.9000161305118,25.400609120798592,19.266260606983067,21.11882964745627,1.9600166487657942,1.1207561653082079,0.9369524322022855,4.333419465510409,1.2114902885957273,0.21475413476256344,74.62995940566054,59.2140646148436,38.90772978133768,9177.72452751795,4986.727304546053,1977.2805446540372,-55872.837249033866,-13648.635856710702,-1024466.8915303868,2
47.91970794098061,15.29674222721011,47.48625984746201,25.478245676067,9.08151093315415,44.26006687456367,62.78130956284383,22.175132156166885,340.10921219044576,0.8108716498605277,0.6188628739987163,1.186516720508137,1052.7780156967804,355.68605086468,6155.723925700008,37.16649826977477,10.651736035469703,22.07841230074009,12.725944700410126,11.462791994642755,17.823996246583963,199.21330491407892,168.71509551094346,317.11571521489736,47.9197079409806,15.296742227210103,47.48625984746201,6237.7912395745025,725.7268089091792,117929.2210911063,-55327.16154056962,-4831.337730091674,-950771.8868004951,2
35.9806091283845,8.106095150204863,20.179915496818975,16.862391982982864,3.380830528525155,8.6117480003256,21.13657857114842,4.02907762602484,10.11615306372429,5.083108002388026,2.1126127961729693,1.9278756088074913,88.5813010377302,17.720366964023352,39.68228379318256,37.16649826977477,10.651736035469703,22.07841230074009,0.6820417455552096,0.35595522805785895,0.058434698855801825,-0.21746484728864113,-0.6234039965741518,-1.0225797734225,35.98060912838449,8.106095150204862,20.17991549681897,1741.3591869439167,81.94224510070876,509.56554226745294,-55327.16154056962,-4831.337730091674,-950771.8868004951,2
33.46289384643639,8.38693653592898,19.1218638269525,15.047373792146605,3.1721548126919914,8.591442305063822,17.82708902410726,3.958044489142848,10.192786606266372,5.643536790939381,1.4420298336600104,2.438763718201995,76.93379196531252,17.57403919800869,37.498287435009146,37.16649826977477,10.651736035469703,22.07841230074009,0.38029645198720424,0.6697523174816601,0.21539901505784687,-0.510080004006277,-0.09055494847445322,-1.0913862386232602,33.46289384643639,8.386936535928978,19.1218638269525,1437.5703676513156,86.00682063573443,469.5385750173976,-55327.16154056962,-4831.337730091674,-950771.8868004951,2
36.309079223606105,10.297169828181769,22.269968810752346,16.417853494862225,4.730812188452934,10.88988819159579,20.38006142651164,5.6813683978070335,13.365588163471573,4.483764750186365,0.6188628739987163,1.186516720508137,109.9937425367209,23.056155452722685,74.1075100682495,37.16649826977477,10.651736035469703,22.07841230074009,0.6531988889339694,0.4449337555146966,0.878875218537541,0.527213643873989,-0.6334152127079808,1.1638678349027183,36.30907922360611,10.297169828181774,22.269968810752346,1733.6961378144929,138.30965334201747,674.5904577874137,-55327.16154056962,-4831.337730091674,-950771.8868004951,2
45.88570457887759,13.007890002280368,29.132450467651992,19.55401264886731,5.292346599064783,12.594694147851579,23.61370320761945,6.687223717307082,16.528355577487808,11.2745440802026,1.50959462551691,2.6425789310068746,112.15530808165553,32.805491524182976,88.74315609768418,37.16649826977477,10.651736035469703,22.07841230074009,0.578736816812407,0.5146089077791923,0.8861784553626318,-0.24939167548218188,0.10011310404474427,1.2621727858421012,45.8857045788776,13.007890002280364,29.13245046765198,2663.104863877565,213.92416335673977,1121.886208346068,-55327.16154056962,-4831.337730091674,-950771.8868004951,2
53.7680895752084,21.4034075037538,40.02139644111807,24.510533444924004,10.796763191469658,24.115096961913505,30.677466511820278,14.508610103829518,32.870346278632034,0.8108716498605277,2.1993005046225766,3.1422961731737917,161.6788704705861,74.50950638097581,162.98399920032585,37.16649826977477,10.651736035469703,22.07841230074009,0.8390981070650896,1.443566240662185,1.7092473159159507,0.9981371761934454,2.029936585694685,2.9731267626481976,53.7680895752084,21.403407503753797,40.02139644111804,3832.1144081514885,668.6056199166883,2682.1718375743153,-55327.16154056962,-4831.337730091674,-950771.8868004951,2
132.75313514051496,39.613936158264224,37.26275099897978,36.473593187659716,22.140273355084435,15.505082360020394,41.22255469615261,25.27458577620589,18.01468961802965,85.93348854937493,18.88359061570904,14.948275722740219,190.56428054282296,88.65469683448832,68.78047841162523,37.16649826977477,10.651736035469703,22.07841230074009,0.35716054013212983,1.0702559678907302,0.6003132320871344,-1.4820258043919612,-0.45896200716536484,-0.9190498466478698,132.75313514051496,39.613936158264224,37.26275099897978,19322.69390531312,2208.0686241098224,1713.0416540459144,-55327.16154056962,-4831.337730091674,-950771.8868004951,2
41.0867758807083,16.522118558336324,55.878235035251095,23.727628902157758,10.18649398930271,43.53947214369886,61.134416972357386,18.9490599345578,316.5034496779666,2.2508320488960023,0.4753133892297735,0.8892291346124329,933.7288820412,193.31434616709998,5821.234221799999,29.29031129158548,12.201208651547205,30.797847559240743,10.744595357599577,5.216312668802815,18.042153192041525,142.8846397430371,37.75014159515226,325.6594972586557,41.08677588070826,16.522118558336324,55.878235035251095,5425.540090821609,632.047274059185,103296.81080870789,-54341.818774249725,-5798.337464339872,-916162.9299639678,2
27.01553003283912,10.291980436831203,27.151334044464527,11.169946588177169,4.276331527785301,11.963528347446495,14.367581078150064,5.056790402641101,14.709767620764866,4.166384115569399,0.4753133892297735,0.8892291346124329,65.55187397444276,24.240954872822073,68.0657725823416,29.29031129158548,12.201208651547205,30.797847559240743,0.6139459643612644,0.5004680850120252,0.7018028653926304,0.24833110870740116,-0.11974536980460337,0.09595902611836049,27.015530032839106,10.291980436831203,27.15133404446453,936.2662489924476,131.49599048835933,953.5722038510012,-54341.818774249725,-5798.337464339872,-916162.9299639678,2
29.09856224382887,11.385508805260061,31.99710477814675,10.984086203798737,5.021642588479382,16.75317756400761,14.065338772555576,6.188384146295118,20.276846481357694,2.2508320488960023,3.2405789828593377,1.0370067678947084,64.80702847357757,24.978123229367846,77.17059714794729,29.29031129158548,12.201208651547205,30.797847559240743,0.1390783968512417,0.7435286334916997,0.6760560585387438,0.24663600308198586,-0.3899712849160091,-0.4888406307791153,29.09856224382887,11.38550880526006,31.997104778146753,1044.5600794447382,167.92590909677116,1434.9652174122493,-54341.818774249725,-5798.337464339872,-916162.9299639678,2
37.95064171871349,13.303806600762234,42.6839107682691,16.727043044268335,5.653652319592605,17.930295267372028,21.884957568411362,7.285193258792892,24.334369590245736,3.8484537087692967,1.4276562176060785,2.813973094273183,116.54836535441902,43.087013737401264,135.58275402492418,29.29031129158548,12.201208651547205,30.797847559240743,1.210060553499607,0.9729611102304278,1.4582686796965136,2.0750111560983893,1.0804164419621927,2.6544678367170356,37.9506417187135,13.303806600762229,42.6839107682691,1919.2025746333227,230.06531088844602,2414.077781828235,-54341.818774249725,-5798.337464339872,-916162.9299639678,2
58.40553866438261,21.897914372178303,65.82611796081858,22.989224193922126,10.253069184892457,33.04394050110255,29.955189410713725,13.0321351384034,39.11561559076912,4.721377277380591,3.539612726633935,4.567814471048047,120.56525001752262,53.94953460917445,145.6911898724539,29.29031129158548,12.201208651547205,30.797847559240743,0.29087532348818035,0.6818394576488804,0.49279311159873773,-0.3406195953485751,0.17237963693051617,-0.7478616623339032,58.40553866438261,21.897914372178303,65.82611796081858,4308.520319308429,649.3552001168617,5863.109188836423,-54341.818774249725,-5798.337464339872,-916162.9299639678,2
41.20369575634361,26.286580628224723,38.91223760301033,15.663322656126763,11.26033187105327,18.923333784971163,18.682114022947065,14.13307210448747,22.164689173883897,12.242593404584545,3.6095630058631967,5.0120927173168335,77.61114509165012,62.41523864345783,93.2926916031676,29.29031129158548,12.201208651547205,30.797847559240743,0.25946025700305114,0.555899717898039,0.5980991407860395,-0.8916288848694407,0.06267383631201096,-0.41555903514764303,41.20369575634361,26.28658062822473,38.91223760301033,2046.7659283477249,890.7280482348013,2005.4356814480175,-54341.818774249725,-5798.337464339872,-916162.9299639678,2
126.52611751297992,72.22628813905335,39.43403352655541,82.52885756148132,29.080999727376295,20.05436671088153,122.61454166762329,37.57370315383339,28.780403850003015,22.385677685789457,20.31410126203039,10.920348650861406,503.1871069595086,173.5185326861637,123.25696177341594,29.29031129158548,12.201208651547205,30.797847559240743,2.14995976345618,1.206140782578565,1.7548981437849085,3.9979819548180853,1.5028819277962873,2.7781104556467895,126.52611751297992,72.22628813905335,39.43403352655541,31043.184241269733,6628.419867037949,2383.354645942764,-54341.818774249725,-5798.337464339872,-916162.9299639678,2
39.40341448210059,19.91315664000954,47.1308039860638,30.593822064748966,10.762341992108745,44.26315745850463,107.61337670321711,17.3879025658002,326.93198915221524,0.9361532004203805,0.4172383060452542,2.063730681022396,1734.742831585,176.32185087482546,5564.7978793,23.961886992056783,12.890088980982629,21.732284356421896,13.829501324403807,3.7712785165008493,16.749494565589245,212.20908624187442,24.384611690137774,279.69010350738836,39.40341448210054,19.913156640009536,47.1308039860638,13133.267918316722,698.872963007317,109105.83821539694,-97031.73892065583,-6383.28877324481,-823981.8719825854,2
19.625023650522994,16.27106795463456,25.390531955014062,8.259697780129134,6.099353676713811,9.963785470109324,9.368644230448384,7.630202993635623,12.134523123624284,4.06525477845999,1.8746444690759982,6.548490480523022,37.71705975268322,31.47669326425609,43.73194209731312,23.961886992056783,12.890088980982629,21.732284356421896,0.11020253401337253,-0.20855235006060907,-0.13368273112449822,-1.1386689454017276,-0.6404183259591703,-1.1025875026617344,19.62502365052299,16.27106795463456,25.390531955014062,472.91304800030065,322.96765010842165,791.9257643963626,-97031.73892065583,-6383.28877324481,-823981.8719825854,2
19.52647446093096,13.423077431787501,18.59005556560131,8.463509699048975,5.1998548628840595,7.4569000063611774,10.90052599897953,6.47271921191845,9.603693623583192,1.3672568001909637,1.218143673617957,2.063730681022396,62.08903581019584,31.47669326425609,50.180731122982166,23.961886992056783,12.890088980982629,21.732284356421896,0.7977651224220778,0.4367311607380521,0.8090244311260734,1.2247570509002843,-0.105626080227752,0.6078715691721279,19.526474460930967,13.42307743178751,18.590055565601304,500.10467192781783,222.07510173610135,437.82109714779637,-97031.73892065583,-6383.28877324481,-823981.8719825854,2
20.640997872380535,13.89202208468965,23.785405538907934,10.451867951467955,6.49200180880897,12.77093139734063,13.437380449791904,8.082034235386349,14.822758946444695,0.9361532004203805,0.4172383060452542,2.2847917493930314,59.285233916864605,44.300932284185436,53.63209398522356,23.961886992056783,12.890088980982629,21.732284356421896,0.9801273130319276,1.1022292965409781,0.37980446019603337,0.7825823710038589,2.426996289977435,-0.9922340803405905,20.64099787238053,13.892022084689653,23.78540553890793,606.6139865200671,258.307554983462,785.4596994347183,-97031.73892065583,-6383.28877324481,-823981.8719825854,2
27.759636686487518,19.50653525299546,35.654883946335445,12.309776835172583,6.945647434521442,13.03641428074979,15.418303150177918,8.625008347894525,16.536723668246157,2.940337555879955,6.892861630952215,4.2041943622397895,56.45996213529879,36.12608384780384,67.38008667233815,23.961886992056783,12.890088980982629,21.732284356421896,0.2277787516837447,0.6759683413365815,-0.11547645057960174,-0.8268001072333884,-0.6265115154201522,-0.5525869211973014,27.759636686487518,19.50653525299546,35.65488394633543,1008.32150099657,454.8956865776049,1544.7339789065813,-97031.73892065583,-6383.28877324481,-823981.8719825854,2
35.69094041961501,25.205657744885862,36.718070569948644,17.272803387084785,12.458852233690429,19.017558231121857,20.796922361546724,15.66422248636566,23.75513905557726,4.78471951804834,2.6070211070751514,4.449308439896159,90.043630152362,67.63110902989968,97.1373924358124,23.961886992056783,12.890088980982629,21.732284356421896,0.5637462423636164,0.9950249424784978,0.9467890577899644,-0.5779834580591259,0.34297671866084745,0.08983416204869554,35.69094041961501,25.20565774488586,36.718070569948644,1706.3552077487102,880.693048454688,1912.5233379295412,-97031.73892065583,-6383.28877324481,-823981.8719825854,2
132.60407002493963,45.05317780860017,42.623377971653206,65.27547161969423,30.718778468360654,23.340885899482664,86.07271906773713,40.659056642851375,34.40581863222535,3.695838605837364,5.6957805328244495,8.509697078349111,408.37026898860495,176.32185087482546,159.33908729912977,23.961886992056783,12.890088980982629,21.732284356421896,1.4377999424168104,1.6958029872477254,2.0625880659451554,2.7549760812791506,2.9046742574984954,4.128054111722868,132.60407002493963,45.05317780860017,42.623377971653206,24992.352354892697,3682.9477177399394,3000.512705467997,-97031.73892065583,-6383.28877324481,-823981.8719825854,2
40.5818386144116,24.552689933215575,47.96612517304029,22.854987651522528,13.713207167202393,39.85292224402471,65.18153033916734,21.39227033036275,286.37512134229775,1.2503260918201902,1.5792911809035266,0.44687415891346205,1078.70163131766,207.61443977759996,5019.1068359,26.56896715725526,18.7009287427016,25.37892928159217,13.395590680984045,3.489481911409392,17.20577387011032,208.84741745176296,20.419452726401232,295.6824516332135,40.58183861441157,24.55268993321557,47.96612517304024,5895.517522681941,1060.4638128439433,84311.45928793156,-53205.99560353523,-10859.34832167246,-753368.3828622117,2
27.341201096925513,15.953697799957038,26.24222360583526,8.80361515166098,6.360582014246455,15.252190389661221,10.720451794998976,7.510284204465842,17.15666058378382,10.492259055084512,3.1013545500647703,2.313450209212607,53.51587032280746,30.940596107829265,56.230735548019865,26.56896715725526,18.7009287427016,25.37892928159217,0.5506293504302251,0.25009943904525883,0.3488174672245496,-0.18532336959832696,-0.8741736051922864,-1.231338912691854,27.34120109692551,15.953697799957036,26.24222360583526,862.4693641114171,310.9248423242032,983.005302165819,-53205.99560353523,-10859.34832167246,-753368.3828622117,2
30.6441664368956,15.961674043885374,27.92756898498966,11.851153613859307,6.957783674648885,10.275661686157898,14.717129778054622,8.862510280466314,12.151283739785372,2.3725611661280723,3.1163312123763824,2.798724543311029,64.49904510991949,42.412600981576375,55.242806599094095,26.56896715725526,18.7009287427016,25.37892928159217,0.2777499449771961,0.8455627414471927,0.23585835143346684,-0.545026822605525,0.6895122592621874,-0.8122565727618585,30.644166436895595,15.961674043885374,27.927568984989666,1155.6588455162605,333.3191267546151,927.6028059361288,-53205.99560353523,-10859.34832167246,-753368.3828622117,2
25.01648512245822,20.624803698314174,27.830981330676323,10.290477163406207,8.449943934839187,10.949272801932354,12.050330244513384,10.2896575270535,13.20987233030862,5.317700601748823,1.5792911809035266,0.44687415891346205,56.369732565269985,39.60078971477511,63.860988268674284,26.56896715725526,18.7009287427016,25.37892928159217,0.3979054247679609,0.21534904473259742,0.2775563631127327,-0.5366807067261168,-0.9298619223783824,-0.2461786242627806,25.01648512245822,20.62480369831418,27.83098133067632,771.0349868840076,531.2595796180432,949.064248811507,-53205.99560353523,-10859.34832167246,-753368.3828622117,2
29.990613847867074,25.020926538158303,30.50602049753668,9.251407169942702,8.41794833064281,9.145733279040208,11.429314923055902,9.61695669746771,10.648487399002772,6.794312552069133,8.874517459257165,11.896281083259067,47.676068009296344,40.18228621799247,47.32366702774563,26.56896715725526,18.7009287427016,25.37892928159217,-0.2837263034591619,-0.012994484706920648,-0.14500738754916337,-0.5241721235499006,-1.212876579503946,-1.1090922280142756,29.990613847867074,25.020926538158307,30.50602049753668,1030.0661585822647,718.5326209488837,1044.0075704828494,-53205.99560353523,-10859.34832167246,-753368.3828622117,2
53.84197927538108,33.991456395957265,50.76958089811361,26.00047582832304,17.31750409132821,22.89713642136106,34.1428716342102,21.741026572664897,27.325788732989846,1.2503260918201902,2.362089535301327,2.6687706746121513,172.68443755056114,117.38549668690246,115.40874742901119,26.56896715725526,18.7009287427016,25.37892928159217,1.2432942452707667,1.1421803193588973,0.419655299161993,2.0414108652650595,1.5570204227893258,-0.6702601014210154,53.84197927538108,33.991456395957265,50.76958089811361,4064.694415720721,1628.0913443515851,3324.249074450099,-53205.99560353523,-10859.34832167246,-753368.3828622117,2
84.99543650440589,60.61176539169928,32.54387581416132,26.055323940937186,23.795577183228584,13.354572495572286,29.73818971992468,32.038744129008236,18.3705987215254,32.24930983320543,6.89605267630172,3.2773024172305263,122.5248371568921,135.76870360969573,76.02451203222661,26.56896715725526,18.7009287427016,25.37892928159217,-0.33659295497890507,0.4387889420462789,0.8335112548986275,-1.1307322341847363,0.2809326822715188,0.4607163983052156,84.99543650440589,60.61176539169928,32.54387581416132,8108.584154392726,4700.267229262455,1396.5827503948647,-53205.99560353523,-10859.34832167246,-753368.3828622117,2
52.814780902062324,16.60622430521447,56.8165955478615,30.097932791561785,8.514449874679604,40.81595495230787,68.94426350422336,17.75889222338334,300.19987080143295,1.6047742331535841,0.2653243442366215,1.2607065658707075,1029.3092779803603,249.3366097850001,5068.969331200002,37.3267559763254,11.467691501788531,27.188687379797557,10.392905324822049,8.69439261508302,16.5620700919309,140.9833808562318,105.32354777238506,273.53433169611026,52.814780902062296,16.60622430521448,56.81659554786147,7542.712551872629,591.1449386768415,93348.08795884631,-72749.69823485984,-4406.352080390732,-770781.6843272515,2
29.90879758954807,11.20728852692909,31.261328684792893,14.158145191541609,4.653294646945007,9.59208118582981,16.8899843326324,5.560644186552024,12.526036193195715,4.781962173249579,0.9676718715453468,10.115430900729873,72.39889444516747,23.915741637771724,58.165636646187494,37.3267559763254,11.467691501788531,27.188687379797557,0.6088357655298969,0.09906271777431462,0.5404302204257809,-0.2926044470239222,-0.5511963727930098,-0.03648414890784357,29.908797589548076,11.20728852692909,31.2613286847929,1179.8077440091247,156.52407989527129,1134.172253851904,-72749.69823485984,-4406.352080390732,-770781.6843272515,2
35.90499217895239,14.003277242108048,37.885917947416395,13.157285752596719,5.462016163307209,12.569864647408616,17.361627480665213,6.375327142285691,15.153279778357895,3.2405499109659064,1.1514726975720149,3.6765345904301987,83.01254972850647,27.081240683513347,78.29364817574289,37.3267559763254,11.467691501788531,27.188687379797557,0.3757394913797482,-0.12474706642315149,0.1843614682508816,0.05120354607397193,-0.8773727832983402,-0.2770563514181812,35.904992178952384,14.00327724210805,37.885917947416395,1590.5945721480216,236.73656969050586,1664.964666759558,-72749.69823485984,-4406.352080390732,-770781.6843272515,2
47.97937218464401,15.288203398338378,39.59446923074031,21.948489139354805,6.768490947128442,15.447944116160405,27.25313651869891,8.208899520520013,19.293984990107674,1.6047742331535841,0.2653243442366215,1.2607065658707075,122.13328330289535,37.328126871361576,95.16631087622213,37.3267559763254,11.467691501788531,27.188687379797557,0.584216006037417,0.4432933706455898,0.2965895117084294,-0.28757978973537446,-0.46010623991648814,-0.17269336442959782,47.97937218464402,15.288203398338384,39.59446923074032,3044.753605339432,301.115194486959,1939.9798504625414,-72749.69823485984,-4406.352080390732,-770781.6843272515,2
115.21552640501268,27.606740824246465,65.45334620731728,41.14306113631103,12.45341676577981,21.858464569321825,50.83775445121981,15.19919368529381,25.064011478835443,20.357118930320453,3.4815029133063264,14.215209911206584,206.66507410646818,57.48882326200939,109.14440573519934,37.3267559763254,11.467691501788531,27.188687379797557,0.22414686342954196,-0.004307103025971139,-0.11365527089027866,-0.7214452122034523,-0.8071875055035322,-0.9557610285444307,115.21552640501268,27.606740824246465,65.45334620731728,15859.094802426687,993.1476276201914,4912.3452011461295,-72749.69823485984,-4406.352080390732,-770781.6843272515,2
50.889862141551404,14.082944048721979,32.786392948081954,18.60047185132563,5.442394797397942,12.542283174401017,23.648769026489884,6.717328287844145,16.274410281717564,18.439167375195673,4.0457567252077755,4.192754233703752,132.02205595304255,34.361520810339634,84.54784454912415,37.3267559763254,11.467691501788531,27.188687379797557,1.2379162364926262,0.7982191121768283,1.0029956794545185,1.945158852235286,0.5440223747478887,1.2624934874654024,50.88986214155142,14.082944048721975,32.78639294808195,3149.042345254375,243.45181240610486,1339.8039925637117,-72749.69823485984,-4406.352080390732,-770781.6843272515,2
92.40963232023006,37.226517530571925,40.81078971460782,66.3183497874119,24.616333998393756,19.357193641659883,81.65480790054046,32.66601057031152,24.362365918260398,26.989833154583085,4.4652902119941436,7.304594392258847,273.5440365266211,111.83206140899945,92.33000158318455,37.3267559763254,11.467691501788531,27.188687379797557,1.3297076522917741,1.2736453426400514,0.7893826738402953,0.2909273663085523,0.6400375401334406,0.03193445741461032,92.40963232023007,37.226517530571925,40.810789714607814,15207.047798834272,2452.8818540336824,2259.045430265155,-72749.69823485984,-4406.352080390732,-770781.6843272515,2
60.140765060488434,31.61249318206254,99.44366722653496,36.713884001521386,16.95056999454719,71.41624655470004,135.3336166613493,48.54627962988545,571.390493958815,0.9628869712449935,1.9785754423788144,2.602125912837977,2880.3204600752197,1019.12197760682,13141.66793,36.71863089082463,19.360559222528394,52.239883404583786,17.666955978961955,16.272223350093647,22.60829895801284,357.45079848367294,323.305459746402,513.0467839279737,60.14076506048847,31.612493182062533,99.44366722653484,21932.099420701918,3356.0909910889795,336376.13953796035,-147732.69657092477,-20620.933861421454,-2267135.565996086,2
27.28280327429305,16.608120564393214,51.260586261270426,11.863905580523607,7.029060849044779,20.764087701428185,15.152128435637557,8.65464474768903,25.766975177149554,0.7503314206046608,1.9785754423788144,3.4963980000207657,81.92178806429045,45.99483177067658,141.6767267598836,36.71863089082463,19.360559222528394,52.239883404583786,0.8322899857381288,0.5555456995026057,0.48831116304106953,0.7425633206445368,-0.22930448904189094,0.05784591801642325,27.28280327429305,16.6081205643932,51.260586261270454,973.9383506338319,350.7325443901215,3291.5847136289917,-147732.69657092477,-20620.933861421454,-2267135.565996086,2
51.36035365024734,28.178738200473465,88.76740197236701,25.370857335411582,12.433251959999707,41.58155073525949,31.97299115077669,16.767993630878763,55.186298304721284,0.9628869712449935,2.7419219697856,6.152066421741021,192.35180183523616,116.00039008888393,295.45166443330754,36.71863089082463,19.360559222528394,52.239883404583786,1.0696815625367373,1.5524950439705894,1.2150117747308042,1.331332072892339,4.2432212102670235,1.734350385667522,51.360353650247355,28.178738200473457,88.76740197236701,3660.158090206121,1075.2068969760128,10925.17917350147,-147732.69657092477,-20620.933861421454,-2267135.565996086,2
69.68581155394529,39.93661627069812,111.69923037596227,30.803732760292654,17.240021273522537,39.46751755065129,37.79849244624895,20.19323300010997,50.589173640983084,9.089115053192437,5.269999189944502,16.268966026962147,151.3327786763747,86.03834204301403,229.28095328158057,36.71863089082463,19.360559222528394,52.239883404583786,0.561726521207157,0.29603948136457076,0.2977870775220379,-0.5982011400957696,-0.7520672995466482,-0.362083714696964,69.68581155394529,39.93661627069812,111.69923037596227,6284.838363141111,2002.6999781497202,15035.98255625983,-147732.69657092477,-20620.933861421454,-2267135.565996086,2
47.77749828231455,27.6237625052078,69.91352524165576,15.27167514260066,7.630815209780784,32.10103796198711,18.840265975325785,9.552432114030639,37.04519781690437,18.053152359968067,6.097402444918677,6.318554991513204,88.7396227152964,45.91199384688743,133.6628071424053,36.71863089082463,19.360559222528394,52.239883404583786,0.41943130122820704,-0.38769921522961936,-0.03333178546813584,-0.4909224506549603,-0.23008708891281682,-1.0801402866721819,47.77749828231455,27.623762505207793,69.91352524165576,2637.644964137589,854.321214237288,6260.2476930092125,-147732.69657092477,-20620.933861421454,-2267135.565996086,2
56.965264678881155,31.261436437575696,50.69532841523373,28.72917823522366,15.904335714964407,21.458475515086615,38.88271321547344,22.203934216015625,27.422428270610602,2.224863348428884,2.327317186956786,2.602125912837977,251.39544881962527,133.04693864047462,148.95659675349776,36.71863089082463,19.360559222528394,52.239883404583786,1.6989995146991246,1.8384700584079936,0.8477583767816824,4.486712486486529,4.972068169959268,1.1214639138456173,56.96526467888117,31.261436437575696,50.69532841523372,4756.90676693174,1470.2921028097346,3322.0058953851867,-147732.69657092477,-20620.933861421454,-2267135.565996086,2
313.58883523475686,122.19146593108366,142.37371179387344,245.28293271952012,45.93603378158029,64.06273304718573,262.5438099657648,54.32618696736086,68.95250641027505,25.96248681772589,32.950263077761946,50.7528394865348,698.8367156290548,217.0851104075455,233.6664345268081,36.71863089082463,19.360559222528394,52.239883404583786,0.2901731760855932,0.17297289689424056,-0.0497376839616962,-1.650720785169907,-0.744371230073845,-1.637189062088373,313.58883523475686,122.19146593108366,142.37371179387344,167267.20973523115,17882.088936799828,25024.721950223953,-147732.69657092477,-20620.933861421454,-2267135.565996086,2
50.199485287287665,31.64485015102111,88.82809090307619,31.34009384806354,20.95921172910778,75.36242355193754,74.29370317905796,65.65738515123333,599.0993278565836,1.1122316083062405,1.79967324601626,1.8340065761304438,1197.3486777049002,1231.5496048605,12575.661188,29.668571522505847,18.391152617446757,38.176902809550285,10.61421267298756,14.79190960714328,20.67212215721697,145.681766281147,257.14828103073074,427.86377829776546,50.19948528728761,31.644850151021096,88.82809090307616,8039.54265516657,5312.2887659779735,366810.4343716954,-55071.02437243024,-27845.033442919183,-2137179.570440397,2
22.988964852986886,11.640748255715343,31.767982039402174,9.654229599765358,4.6529429944478,13.045663903220145,11.820695794061896,5.697830060392205,16.44328976242022,2.3333328513079623,1.1495403635631842,2.6926161804916235,62.93242496782885,29.13284149336584,82.5408353005304,29.668571522505847,18.391152617446757,38.176902809550285,0.5730212389833638,0.5120249149710833,0.6387495054047029,-0.14231454963613155,-0.09869065621119555,0.2680659064839035,22.988964852986875,11.640748255715353,31.76798203940218,668.2213540676187,167.97228735004904,1279.586461066693,-55071.02437243024,-27845.033442919183,-2137179.570440397,2
47.26581647026702,26.853389373501045,71.5675694419346,28.01824352421595,15.807065087202766,40.64633240755954,35.250826808582694,20.629457778530686,54.18092228360683,2.5066254651451123,1.79967324601626,7.804552697676703,199.58609681396356,112.00013054378132,287.3759068480358,29.668571522505847,18.391152617446757,38.176902809550285,1.2393789948130849,1.5197153330822557,1.6033452027721842,1.3353174681098512,2.721165589597682,2.8397644166180154,47.26581647026703,26.853389373501027,71.56756944193458,3476.6781972896592,1146.6790490810386,8057.489335328376,-55071.02437243024,-27845.033442919183,-2137179.570440397,2
39.55100062908852,34.91924897212091,72.7512892013091,15.801630103385548,16.76118609663693,37.53219860148765,20.895501284459723,18.511650268356654,44.08489553401723,2.9323929400228694,3.3662249691693393,1.8340065761304438,100.34862282711514,64.38740088191143,162.8950486131265,29.668571522505847,18.391152617446757,38.176902809550285,0.9962658522822656,-0.03355507985118374,0.3765749346291334,1.0799546261347803,-1.346064732054995,-0.8607455004984792,39.55100062908852,34.91924897212091,72.75128920130912,2000.9036246910182,1562.0351444349162,7236.228094697729,-55071.02437243024,-27845.033442919183,-2137179.570440397,2
31.701574459623455,21.390111517514182,42.17022332378558,12.473124427133914,9.988822706917325,17.952583309389873,15.736072688553419,12.202770439017838,21.852506147531845,1.1122316083062405,1.9139657351150978,11.417216328882848,80.98569973102083,58.69474590193228,113.68068954823752,29.668571522505847,18.391152617446757,38.176902809550285,0.6280041274318786,0.757839458725671,0.7675358289654051,0.25109534488573804,0.0467591226316979,-0.06146450451987695,31.701574459623455,21.390111517514185,42.170223323785585,1252.6138068784874,606.4444771190606,2255.8597601058664,-55071.02437243024,-27845.033442919183,-2137179.570440397,2
81.0998414005529,49.31526694290036,45.447861543462956,49.857538795328885,35.59059502564021,19.22716006383659,103.4140299386625,67.6822893901836,26.42546370541263,9.860604574335586,1.9685390485880263,4.792173744912349,749.1649353168891,486.92687308087164,159.4339689108094,29.668571522505847,18.391152617446757,38.176902809550285,4.745885385843777,4.658088104828095,1.5316357686848066,26.140576298484348,25.824342852752462,4.565573725908041,81.09984140055293,49.31526694290035,45.44786154346296,17271.64586334942,7012.8878507460795,2763.8132509198604,-55071.02437243024,-27845.033442919183,-2137179.570440397,2
32.379033474689564,17.52026372304964,56.30307855465274,21.255199150073953,9.197400729403407,47.269481133247254,66.88436090465564,18.7567193695888,353.257091167263,2.1648916606846424,0.8496362992017843,4.600337015007617,956.2808990964002,194.05583134240004,5522.364565199998,17.974831725411978,11.905157017061569,25.7468980036995,11.47077664917114,6.116928157271832,15.371444076103971,150.4015130734566,47.81345814693949,234.85790790498808,32.379033474689564,17.520263723049645,56.3030785546527,5521.919542379294,658.774162434717,127960.60911468735,-36146.07304818559,-4685.489963804078,-862089.7027716916,2
18.83463227196698,11.464629346961114,25.50748268191369,8.43753516309406,5.907056554744327,12.78913103427294,9.682188139877429,6.720472734211207,15.04047120111895,0.5896032361764613,1.909525922882554,1.4797082067140293,32.634135635187796,22.9420724277116,58.53712109787983,17.974831725411978,11.905157017061569,25.7468980036995,-0.3899350745725232,0.16053059540052075,0.26827757737693425,-1.1320976403871736,-1.3565481193318247,-0.5089813871695728,18.83463227196698,11.464629346961113,25.507482681913686,448.4881399962032,176.6024798344783,876.8474467198149,-36146.07304818559,-4685.489963804078,-862089.7027716916,2
13.507482795435857,12.787639539636187,30.01590769756448,5.121697581063453,4.912028935371041,14.659323978306356,6.509514036147582,5.792960561257319,17.041502510224156,2.910237188917433,2.9941187609222735,7.130804631399413,28.31965111120485,22.247402462480103,63.79888460204729,17.974831725411978,11.905157017061569,25.7468980036995,0.44520808201176976,-0.09917558055523727,0.593842501562526,-0.37705759132502825,-1.1490408077518377,-0.8153456123233567,13.507482795435857,12.787639539636185,30.01590769756448,224.8258644557981,197.08211705994947,1191.367522714687,-36146.07304818559,-4685.489963804078,-862089.7027716916,2
15.73016310271445,11.252807856278439,26.352988588149167,7.654228139466604,5.505120311338067,12.22538400271881,8.986761244322789,6.39614493314064,15.049417129882592,0.5896032361764613,0.8496362992017843,1.4797082067140293,36.96023216335333,31.20425564521074,68.6925513673176,17.974831725411978,11.905157017061569,25.7468980036995,0.3731221396524043,0.4315653161077218,0.6715600701278914,-0.9094590257533923,-0.585867313728007,-0.12314878617281089,15.73016310271445,11.252807856278435,26.352988588149163,328.19990890046114,167.53635465606237,920.9649634763235,-36146.07304818559,-4685.489963804078,-862089.7027716916,2
22.3164443899335,16.661335233482728,38.37089549549652,10.044587852292704,7.769362698853596,15.878073440225121,12.751222659520081,9.037580336994269,18.311253620511337,2.1648916606846424,1.1351186835071085,10.427357279885747,49.80383928373585,33.51190021378656,73.45791365820708,17.974831725411978,11.905157017061569,25.7468980036995,0.6619885749236752,0.36430549487189,0.3354556682377146,-0.1509947902254476,-1.0036937663977754,-1.1212655881943565,22.3164443899335,16.661335233482728,38.37089549549651,660.6173695216528,359.27795011011835,1807.627630281004,-36146.07304818559,-4685.489963804078,-862089.7027716916,2
35.64383918573834,19.481507787948516,36.03479429107727,19.139336127968676,9.174963683414237,14.749256369233288,36.163186426991736,17.558621067571412,17.270807981431126,2.6301185444579107,2.1365834819349327,4.600337015007617,350.6132447872369,159.61047354567197,82.02514894728634,17.974831725411978,11.905157017061569,25.7468980036995,5.407743880384533,5.086374819550902,0.28649410321341817,39.89432421323894,33.79767770941733,-0.7394382145139025,35.643839185738344,19.481507787948527,36.034794291077276,2578.259324452135,687.8343194864618,1596.7872079317203,-36146.07304818559,-4685.489963804078,-862089.7027716916,2
52.71001168006483,32.98723227004264,115.5243039473099,30.083022860729358,19.562801445161302,94.27663910474368,124.61667638742156,28.61106304936607,591.2821731076208,1.6008193096558063,1.4530221469309457,2.642435082146618,2564.130173819,244.1572901516485,12466.572014819998,28.440130400542365,19.16811285675565,50.29518420313021,18.493372931825174,2.6217096348788607,20.484718465950504,367.9667260082541,10.681670061147269,424.8374603381259,52.710011680064845,32.98723227004263,115.52430394730992,18307.66136515992,1906.7504216525424,362960.4730373812,-101155.88396441577,-14340.573192871054,-2218448.9108052338,2
27.736129427882105,14.296707343520714,40.761886213211845,11.890072159602635,6.041579003504066,16.38810967400794,15.722571737369618,7.389311492870115,20.659458809384198,0.3332997424429229,1.2248916736542415,5.083240633610093,103.90881481425822,37.629334497148506,134.69908257460543,28.440130400542365,19.16811285675565,50.29518420313021,1.146577684593948,0.5042006513978475,0.7737212947358139,2.433493752038409,-0.43306422118936005,1.000878064383813,27.73612942788213,14.296707343520717,40.76188621321181,1016.4921376769629,258.9977652049416,2088.3446059554694,-101155.88396441577,-14340.573192871054,-2218448.9108052338,2
45.18833426107909,34.77358956291365,107.6824933996646,20.277206235107627,21.06849488381122,64.83760323545685,26.35996609201911,28.393431556952844,87.05025692523668,1.6008193096558063,1.4530221469309457,2.642435082146618,157.53860068223113,176.83142820170485,619.6653961488078,28.440130400542365,19.16811285675565,50.29518420313021,1.0761634002984601,1.780984504287636,1.7821102104982929,1.4034392011231311,3.7995014246158183,5.0754058342719475,45.188334261079056,34.773589562913635,107.6824933996646,2736.833365663408,2015.3894866693415,19173.266615518525,-101155.88396441577,-14340.573192871054,-2218448.9108052338,2
53.30367385266473,55.34870017493633,148.67201498369036,25.10442381032942,29.623681689271258,84.01897860178998,32.48051387214469,38.83555347282927,111.1541410237959,6.265857006809901,2.911142145202784,5.5112443974079195,138.58388919632176,190.75588315386636,564.0697207262313,28.440130400542365,19.16811285675565,50.29518420313021,0.9320230840322662,1.4479265155895966,1.7068647517097015,0.4199030605857028,2.503419464971639,3.707707286603089,53.30367385266473,55.34870017493634,148.6720149836903,3896.265427589837,4571.678824595978,34458.61110604854,-101155.88396441577,-14340.573192871054,-2218448.9108052338,2
36.37293275614849,23.328226743342533,54.43139616111498,13.115616698375218,9.353308061866063,21.389468165966814,16.252598110065712,12.044695207962832,26.44613296533192,3.6530698299204505,4.249964274227662,13.85096927197343,73.47238155574803,58.27381554521192,121.2684229816181,28.440130400542365,19.16811285675565,50.29518420313021,0.2183469440164414,0.46641406567570837,0.6295596337186874,-0.40324824291494954,0.23006961880157162,-0.20642160911756502,36.37293275614849,23.328226743342533,54.431396161115,1587.137182610611,689.2808456415244,3662.1748368682584,-101155.88396441577,-14340.573192871054,-2218448.9108052338,2
62.359278539925896,34.25215411084129,54.020511135858044,35.952840881215515,17.283006055311514,22.632545208299167,62.06439441474756,29.52327364792359,30.66951404051578,7.555563611919725,1.562402520035187,8.726229678193613,444.57399784202164,244.1572901516485,180.43326833132875,28.440130400542365,19.16811285675565,50.29518420313021,3.6803892934917815,4.381344186643603,1.5541248514554904,17.230364162159464,27.41207840560527,3.280395129682079,62.35927853992589,34.252154110841296,54.020511135858065,7740.66867408941,2044.8337481230021,3858.8347148607577,-101155.88396441577,-14340.573192871054,-2218448.9108052338,2
72.3370819290148,34.886000249597515,124.04190220311334,42.573813105189295,21.509814041508676,108.14085619475303,193.84724651497368,42.06364185857213,762.7642310831666,0.7149124898103855,0.2917187093643451,0.26264709623569554,4010.3390519895,670.1593941515999,15961.043637300001,36.34846994956318,18.856732599309233,45.4108575228289,19.22334421396804,8.68620766920471,20.483014785008173,386.8441621508807,118.74401085585833,422.25578643188254,72.33708192901479,34.8860002495975,124.04190220311337,42809.40840344197,2986.3829798211395,597195.6657220611,-178866.02338294694,-14329.716209346909,-2758533.205687338,2
23.886575307192278,10.745485491497968,33.72782629777645,10.686367262038768,4.790621961697852,14.934998391871623,13.814703012811929,6.801300126113062,20.503599830589618,0.9562318384591734,0.6270930296126058,1.4170383821227748,82.45664881381725,49.989520170747504,155.09618604495085,36.34846994956318,18.856732599309233,45.4108575228289,1.0700973937198008,2.1232993256732686,1.624549720500316,1.4404750405566613,7.462014241560514,5.140664757550082,23.886575307192228,10.745485491497986,33.727826297776495,761.4144992383605,161.72314185345928,1557.9638727859383,-178866.02338294694,-14329.716209346909,-2758533.205687338,2
44.86098624826011,17.455645409040407,56.26772517381752,24.149364425672236,8.903479529648264,29.951402198214662,31.07626787158402,12.140616685183293,40.90194034376695,1.5714997694673158,0.2917187093643451,2.848592643682794,169.97349593239267,82.76961814350177,290.7503200536866,36.34846994956318,18.856732599309233,45.4108575228289,1.2443442101574644,1.7292672469013848,1.8516946169201902,1.3941256207011996,4.23007075155006,5.014948232042739,44.86098624826012,17.455645409040415,56.26772517381754,2978.24251199303,452.0941301427045,4839.025620121331,-178866.02338294694,-14329.716209346909,-2758533.205687338,2
78.29412540571022,53.55737526449402,165.39785737139832,27.096474689440303,23.6940828316103,71.74605608130011,33.0791881929766,31.405896296145812,91.40655040512063,23.347175522050808,2.8231833945705493,15.20922491703852,164.16960595304903,161.28321347143174,454.49667006850547,36.34846994956318,18.856732599309233,45.4108575228289,0.587136865466844,1.2138070037696753,1.089092879507194,-0.22976957402610632,1.899913651273894,1.169645026790774,78.29412540571025,53.55737526449403,165.39785737139835,7224.202764551444,3854.722767386102,35711.608680013276,-178866.02338294694,-14329.716209346909,-2758533.205687338,2
106.7201569501715,67.69726444620332,212.9493081296304,42.68239510661021,32.38832751504512,102.28489516885513,52.08022893126758,40.207399654407595,126.97148086248987,25.88419924905243,15.478658330285642,22.48636094944706,217.47664267297117,175.53622640897132,505.67515176708866,36.34846994956318,18.856732599309233,45.4108575228289,0.2859378032220028,0.9884192987517425,0.842578330719512,-0.8018825940578735,0.36375214319915017,-0.12372727673671458,106.72015695017151,67.69726444620332,212.9493081296304,14101.542145002482,6199.55460046844,61469.16478530192,-178866.02338294694,-14329.716209346909,-2758533.205687338,2
55.636446820113974,40.73964094254735,70.39947195035698,30.91184357687031,21.79155320438807,49.468479414166694,54.82465516079615,33.151110022905314,79.20677253321817,0.7149124898103855,5.447543925312237,0.26264709623569554,559.6440627159868,217.4832102816699,593.4778887586933,36.34846994956318,18.856732599309233,45.4108575228289,5.563029263957728,2.6534847188329653,3.4538610318131004,45.854218848946445,9.036807956845461,16.03275093551183,55.636446820113974,40.73964094254734,70.39947195035695,6101.157028267584,2758.714439878452,11229.798466018061,-178866.02338294694,-14329.716209346909,-2758533.205687338,2
29.44145137306997,17.433918801939114,58.9462874942989,15.702764017280236,10.83841252561006,54.93806055426754,43.61943220249087,32.50642536972977,374.53794870648306,2.6296784147567305,0.3820811351718438,1.5367852163821043,614.7259686970001,430.18064916000003,5516.3942838,17.669603869362756,9.358367904002506,23.43257200050475,11.376822884394167,10.261225476450853,14.45585669441951,148.66816561370652,121.55345244892163,207.65004476765574,29.44145137306997,17.433918801939114,58.946287494298936,2769.453924620541,1360.6092151104172,143753.3398306207,-15828.170276344983,-6683.763126681076,-849074.634347153,2
19.92370508204622,6.498944200661066,24.16626139027058,8.52720054080241,3.0710768572838134,8.149750160719277,10.101452942778597,3.6845647133730814,10.174981593444828,1.662119928655811,0.6883452699480731,6.486262466791095,40.633702475148915,13.345574018431792,46.04156336200081,17.669603869362756,9.358367904002506,23.43257200050475,0.05408667966637009,0.2511853279774789,0.16436089447817342,-0.6881247667693615,-0.9738602985050333,-0.64561046225236,19.923705082046222,6.498944200661066,24.166261390270584,498.99337575152487,55.81229285034018,687.5384400098236,-15828.170276344983,-6683.763126681076,-849074.634347153,2
16.33685034935938,7.827208146370193,26.46038529131294,8.082504251867249,3.207409943989124,10.016440664474196,9.850653460331282,4.075750932112416,12.482813173531188,0.5750581808631543,0.6883452699480731,4.834560137107684,40.633702475148915,17.864131127227292,62.6466098752052,17.669603869362756,9.358367904002506,23.43257200050475,0.5785597517809528,0.5443721426829076,0.5649424143468174,-0.4575190994386591,-0.13100044527740895,-0.03641350709359159,16.336850349359384,7.827208146370195,26.460385291312942,363.92805293290047,77.87693302721914,855.972614490014,-15828.170276344983,-6683.763126681076,-849074.634347153,2
18.28191248371091,8.69788948552646,25.202839962847605,7.606014204833286,3.3633997847791592,10.080299086666693,8.979207293786436,4.080271172223901,12.41893497658515,1.662119928655811,1.2689308694064096,1.9703135502763374,39.10407726960042,22.00445966768673,63.29391095834259,17.669603869362756,9.358367904002506,23.43257200050475,0.03752541360241311,0.40499964332555355,0.468511850286648,-0.8624769030114297,0.18142310725811672,0.08812505611293053,18.281912483710915,8.697889485526462,25.2028399628476,414.8544876868526,92.3018943413132,789.4130881455586,-15828.170276344983,-6683.763126681076,-849074.634347153,2
20.963547124559778,10.752734726416465,29.466998741211825,7.743140942584597,4.670687352615137,16.563791806145097,9.806085612147921,5.5610724816410935,18.584040863321526,4.7515004866693955,2.5198576490053908,1.5367852163821043,41.925321236779205,22.424285878104584,61.87079948885883,17.669603869362756,9.358367904002506,23.43257200050475,0.32834729398536444,0.49032821345734207,0.17421026876473408,-0.4849026808331227,-0.6201225476659462,-1.230566175100465,20.963547124559785,10.752734726416465,29.466998741211825,535.6296230764132,146.5468312427484,1213.6705896241833,-15828.170276344983,-6683.763126681076,-849074.634347153,2
28.546095945676658,14.77772846302515,41.21806365062198,12.02985857298311,6.072456627183773,17.689756189778137,14.927718961811166,7.509712358206925,22.672591049537782,2.6296784147567305,0.3820811351718438,2.01945182287268,80.04151393711689,33.92208996218213,114.51442069350871,17.669603869362756,9.358367904002506,23.43257200050475,0.7104605432206074,0.36002681164860734,0.8225615528498782,0.3571066729379706,-0.37377525683786894,0.6006111699834475,28.54609594567668,14.777728463025147,41.218063650622,1037.716387142595,274.7770382299094,2212.9751560063073,-15828.170276344983,-6683.763126681076,-849074.634347153,2
34.95330349831323,28.838055498209226,20.87631988419038,19.92088945767101,20.059086781859744,10.737360851143363,27.097639194610277,33.23753211071249,14.598773819421698,7.44977010708864,1.8869186676439418,2.330805639909578,115.04078626732127,175.44991213306767,77.1669443760142,17.669603869362756,9.358367904002506,23.43257200050475,1.6850649812137384,2.9815396337898536,1.5894908291601524,2.18776313189358,9.433983352564455,4.092988319754558,34.953303498313225,28.83805549820923,20.87631988419038,1956.015475366475,1936.3669857284399,648.9449289376751,-15828.170276344983,-6683.763126681076,-849074.634347153,2
39.265831158061275,14.610843842732093,50.35561514905961,25.23544102998049,9.002800107041464,43.63184487049408,93.8522481438584,19.122638000913756,393.5394096236829,1.0133316212724246,0.3075216799748704,1.6093800512315308,2003.3149588401996,274.44728195830004,8717.4277347,25.49714471732618,9.898708525451104,24.1418082925291,18.856276939639216,7.608852552850321,21.889354025813468,390.1574653750244,82.821451145782,479.0776892476342,39.26583115806124,14.610843842732077,50.35561514905966,10350.049978189743,579.1520419106929,157408.95490399707,-82972.71958626236,-4715.131681774994,-1370425.4118605983,2
23.749899510512563,9.433045860511388,24.492075890619827,10.210104986221339,3.8054385587224813,10.353694667714597,13.743811734136955,4.799721448913454,13.490207699948655,1.0133316212724246,0.3075216799748704,1.6093800512315308,86.86283220248855,25.69940767422233,78.96466539305464,25.49714471732618,9.898708525451104,24.1418082925291,1.2618105953540946,0.6279876440178547,1.003508601095123,2.725282585163579,0.28143295133730595,1.4025626425197277,23.749899510512567,9.433045860511388,24.492075890619823,752.9500877428458,112.01968019367091,781.8474852196348,-82972.71958626236,-4715.131681774994,-1370425.4118605983,2
32.744331953827675,10.558450514274965,32.29288524516305,14.95947876566771,4.060840583829381,12.771414277753967,18.522163664230348,4.815993928909389,15.529777337512876,4.062949591171479,0.6851148248676459,5.677981450519699,88.00280853415981,19.053276872644055,64.60967664948551,25.49714471732618,9.898708525451104,24.1418082925291,0.6825375305893135,-0.16093590275703543,0.07709167897683494,0.721444120020124,-0.7629505947742503,-0.5779509825857194,32.744331953827675,10.558450514274965,32.29288524516305,1415.2618219069952,134.6746747856854,1284.0044216099975,-82972.71958626236,-4715.131681774994,-1370425.4118605983,2
53.03222153783154,18.59893127008222,53.97625017862058,26.94654729308092,10.324411621781632,27.09551880662724,34.70655359522888,13.297268893189063,36.61798078831416,2.5815629620402443,0.7295240503191216,1.6662187486441904,174.54295241155563,77.3414197397389,210.1993628943681,25.49714471732618,9.898708525451104,24.1418082925291,1.2138655815130253,1.2680293492429382,1.460884497073923,1.060357190505087,2.1513597194077363,2.5422823048557266,53.032221537831525,18.598931270082222,53.97625017862056,4016.9613836961375,522.7376044070156,4254.31210035838,-82972.71958626236,-4715.131681774994,-1370425.4118605983,2
36.87694599375854,13.16232555332433,25.156254118002806,17.57895850308094,5.541195220083667,8.786679242463274,21.419846811947565,6.6227719910454015,10.811703598011636,8.732871937022281,2.5287329399170457,3.1012687059903103,91.81591288379985,34.31590763587481,49.93785042334126,25.49714471732618,9.898708525451104,24.1418082925291,0.770327575630243,0.5246561702141425,0.23367657615521215,-0.2556166394342472,0.16245740402706632,-0.5784287032558093,36.87694599375854,13.16232555332433,25.15625411800281,1818.7189832738843,217.10792281707012,749.7300559407914,-82972.71958626236,-4715.131681774994,-1370425.4118605983,2
62.569762423236966,45.156596340176336,21.351354195982697,26.909119075257227,24.371067897198113,9.209667955197336,33.09486503733587,31.029477240850575,12.930335257783234,14.481753199503158,12.960269581798237,6.047993118514844,131.60350261743503,123.05653741838131,60.577656037002114,25.49714471732618,9.898708525451104,24.1418082925291,0.6287681284138819,1.1485340353149758,1.5875090996467507,-0.35863445909814295,0.43352682747009075,2.978828723056991,62.569762423236966,45.156596340176336,21.351354195982697,5010.245261539792,3001.946650870091,623.07389588098,-82972.71958626236,-4715.131681774994,-1370425.4118605983,2
212.83278353267005,126.69326705452937,50.11396802713688,37.689382789964235,31.68218664591912,7.2724823006251755,44.70232115099675,37.3609902286962,7.71495770377232,160.06329520631996,82.93365762184902,44.484469042028124,269.36685771761637,174.21654702340805,61.02269147807464,25.49714471732618,9.898708525451104,24.1418082925291,0.12572456775966379,0.15008466090419742,0.706013746158172,-1.5,-1.4999999999999998,-1.5,212.83278353267005,126.69326705452937,50.11396802713688,47296.09126255123,17447.02750781903,2570.930363795893,-82972.71958626236,-4715.131681774994,-1370425.4118605983,2
26.79031105356507,14.010511182630335,44.13736803305342,15.753051889884368,9.097864115714328,39.89149849883883,42.08208292829319,31.170484395389565,361.0395573526034,0.7277067394115214,0.6478095095620593,0.13086013296038018,727.2436687806,540.3665008611999,6850.955780400001,18.93972660941438,8.977080284955598,20.340229983083383,13.156388372888014,14.031516645635978,18.771197618263926,212.61118793197812,227.10927103797036,350.9071460876558,26.790311053565063,14.010511182630335,44.137368033053406,2488.622469930515,1167.893521041834,132297.669230249,-18813.304241792,-7249.735237894408,-1064854.9686452283,2
16.530176832694224,7.434414833916251,20.003044862812818,6.642290839243038,3.163302068746065,9.517739492267054,7.912477277564592,3.9598688423226793,11.78605880991262,0.7277067394115214,0.6478095095620593,2.45700812057478,35.448020754968354,19.418604049914823,51.24929697703987,18.93972660941438,8.977080284955598,20.340229983083383,0.18896555554014044,0.5336839389863653,0.6674701231585527,-0.7235937367514298,0.06998340681424686,-0.22350951268698882,16.530176832694224,7.434414833916251,20.003044862812807,335.8540427881168,70.95108517115197,539.0329860544207,-18813.304241792,-7249.735237894408,-1064854.9686452283,2
18.935290684303894,8.734899244783357,23.22889492876743,8.433353263952704,3.8232026610035783,9.449056935709528,10.643551370366177,4.846199110773678,12.15073813185025,1.6282781776753346,0.9551836253141763,0.13086013296038018,54.59634095967818,20.47756551242854,65.8076600981604,18.93972660941438,8.977080284955598,20.340229983083383,0.7824529150004701,0.7833209598937344,0.7016156946833805,0.7654073873454279,-0.019664277073240477,0.926064179925723,18.935290684303887,8.734899244783355,23.228894928767428,471.83041907270945,99.78411063778043,687.2219967605167,-18813.304241792,-7249.735237894408,-1064854.9686452283,2
21.196050078098146,9.261791071671968,23.895408528377917,8.535165534697674,4.694143887370103,8.34070219615255,10.60344146675508,5.654862506516665,10.202956159905645,3.975288604643666,1.6399841395234362,5.354130275620449,43.553916445465674,20.649880579124606,42.06765949419552,18.93972660941438,8.977080284955598,20.340229983083383,0.32274710294702386,0.426451421948162,-0.024755245666588845,-0.5305856737179484,-0.8203667217208506,-0.8560251766036755,21.196050078098143,9.261791071671968,23.895408528377917,561.7055098521453,117.75824382291053,675.0908631390324,-18813.304241792,-7249.735237894408,-1064854.9686452283,2
26.48429870718529,12.694888211997368,32.649084142831185,13.633344850419398,4.628507549740241,14.08397367954116,17.011113999369904,6.009013394244655,17.973472127847753,2.6493577565361695,3.8399200355014838,0.9656250785120652,78.87399809188628,27.97414393888259,90.73287160578383,18.93972660941438,8.977080284955598,20.340229983083383,1.0264366099015694,0.8481203971907597,0.6430647561945855,0.7537185900590302,0.2691704435111282,0.49516407311622723,26.484298707185292,12.694888211997373,32.649084142831185,990.7960775109754,197.26842868732146,1389.008395696191,-18813.304241792,-7249.735237894408,-1064854.9686452283,2
33.45837636727026,17.452775611224535,26.24354022774798,17.440282842131822,9.344958455587768,10.997458545003619,25.70426964532339,14.845613889533894,13.136351854058002,0.8539698809798002,0.9821820620085785,3.4010322172030603,157.55544348712874,106.93283063078762,66.96545850297235,18.93972660941438,8.977080284955598,20.340229983083383,2.071577818659991,3.12959257483843,0.4950309905508404,5.9443828302386645,14.042018783561527,-0.11896830616834952,33.45837636727027,17.452775611224546,26.243540227747978,1780.1724271334035,524.9916282928759,861.2871437190396,-18813.304241792,-7249.735237894408,-1064854.9686452283,2
90.31788254499651,80.50364721300758,18.529872957609236,23.239603804977317,56.737359860212855,12.793317705744384,23.324291067848172,62.32556655526127,13.428569788627273,66.64469917658131,13.707436056556832,2.3232030647399435,116.33214783796485,172.30546194783943,35.97765563179956,18.93972660941438,8.977080284955598,20.340229983083383,0.020633752884084467,0.3966431255175943,0.07935100978368655,-1.9711683573419205,-1.4111234541917195,-1.6638644604238146,90.31788254499651,80.50364721300758,18.529872957609236,8701.342461229488,10365.313461030686,523.6826783931712,-18813.304241792,-7249.735237894408,-1064854.9686452283,2
36.22379811684318,17.688286755055888,75.6945015549532,25.719063821752506,8.673460237951417,71.30201647886693,96.8351844868975,12.411445184960582,398.65970498190495,2.9991980617998926,0.7416764984743327,3.179552922476387,1144.4667527605004,97.61401740612955,4766.003441699999,16.264382765667563,11.7327985446605,28.869645338949972,10.740602448474968,2.340668730851075,11.63103284611836,119.59377959712612,11.170052313803065,133.85763946889074,36.22379811684319,17.6882867550559,75.69450155495322,10689.21650462129,466.9194599083672,164659.21794191236,-42410.47254441631,-2806.0860875268713,-738015.6519853778,2
24.517609784442865,11.586368086813291,33.53249064351304,8.636361899843124,4.728114731360948,15.4816089771683,10.176876943107198,5.717841099156543,17.941827377802348,1.1924483361936897,3.097803655905034,3.5736443185876303,40.673099722228834,25.87910798740225,71.18761109405364,16.264382765667563,11.7327985446605,28.869645338949972,-0.5158036021073716,0.5698577908129346,0.5115350349004596,-0.5625782724266992,-0.17974133961465233,-0.8644329484964643,24.517609784442865,11.58636808681329,33.53249064351304,704.6820138573554,166.93763227832915,1446.3370984121475,-42410.47254441631,-2806.0860875268713,-738015.6519853778,2
18.564450677069342,11.128302546631168,32.283240049282924,7.686242255952911,4.872651208066846,13.721354615910986,9.236104586858362,6.002089610013014,17.235116371083222,0.9496475494618755,1.122104728919309,4.374916799396266,46.52000325256841,29.401244776233952,92.30325502021599,16.264382765667563,11.7327985446605,28.869645338949972,0.4059778027307908,0.6889283818597721,0.8718331953606421,0.043321944721602,0.1272464969450473,0.42690901512472523,18.564450677069335,11.12830254663117,32.28324004928293,429.94445688072625,159.864197255984,1339.256824404406,-42410.47254441631,-2806.0860875268713,-738015.6519853778,2
20.013172411706375,11.58971447016178,35.10494013969678,8.278243569393231,5.2126548000798705,14.91751385546599,9.728287913369405,6.565149283458056,18.745992576515196,3.0758506092486138,1.122104728919309,4.374916799396266,42.71614955258575,29.401244776233952,92.30325502021599,16.264382765667563,11.7327985446605,28.869645338949972,-0.07707220993256013,0.9120032866497173,0.8679562896558154,-0.8679072797199474,0.2847854808298482,0.5062369804372704,20.013172411706375,11.58971447016178,35.10494013969677,495.16665570609445,177.42266661396724,1583.7690598904562,-42410.47254441631,-2806.0860875268713,-738015.6519853778,2
21.751117199736093,13.13014397777417,35.10466148575706,10.64946615419129,6.001041712128774,16.20330369350797,11.720680744115144,7.1873648289261975,20.293693251870906,1.1924483361936897,3.097803655905034,3.5736443185876303,34.97974096625716,27.058529864146248,76.18368972912693,16.264382765667563,11.7327985446605,28.869645338949972,-0.33798920294605345,0.6504099712475372,0.737717984644195,-1.371762441109466,-0.6294534005671659,-0.340208517883942,21.751117199736093,13.13014397777417,35.10466148575706,610.4854565421268,224.0588940611646,1644.1712438306265,-42410.47254441631,-2806.0860875268713,-738015.6519853778,2
24.762234951458733,15.853383081050355,42.6933083255542,10.156465770345587,7.513646811207122,20.851256855782548,12.859733849413223,9.574027830428227,26.179198090088065,2.9991980617998926,0.7416764984743327,4.52040667871623,60.955542397003875,54.24262866780889,128.42967456674134,16.264382765667563,11.7327985446605,28.869645338949972,0.7202255163830718,0.9104393464074844,1.0200639881913776,0.12838701989177537,1.3801705186665583,0.9499536084926765,24.762234951458737,15.853383081050348,42.693308325554206,778.5410344689889,342.99176401234774,2508.0689884209055,-42410.47254441631,-2806.0860875268713,-738015.6519853778,2
63.268411191678375,31.614005563206867,30.125811228591935,44.9105683115054,16.69696134142609,9.954452397103289,52.95046067717823,22.83641856563193,12.142934266870371,9.69887874957945,7.8800111041657415,3.179552922476387,184.79292693097122,97.61401740612955,47.925270994069834,16.264382765667563,11.7327985446605,28.869645338949972,0.9158585195340063,1.6916460264037139,-0.44700472113588113,-0.2802545609111933,2.589768886282548,-0.30810498037544054,63.268411191678375,31.614005563206867,30.125811228591935,6806.643140644693,1520.9473606552133,1055.0153547902905,-42410.47254441631,-2806.0860875268713,-738015.6519853778,2
35.108808634702044,25.418452381887196,70.97971735438347,18.899087874217646,15.8259854694814,70.87368293855366,53.86098405554183,59.241611828933216,406.6859788914475,2.9859782080292727,2.5872063718374205,1.7959355217929793,624.3454740994,687.3609937595,4808.1894218,20.81127281198927,11.458806383478763,20.729024395233765,9.608086139661964,10.30597372942782,11.535266864618693,101.70841243011402,111.11495674010042,131.3796583539351,35.10880863470207,25.41845238188719,70.97971735438344,4133.634047179463,4155.666293580265,170431.60570260306,-18805.352655556493,-14808.474520080728,-731180.0948467387,2
18.17138611876049,13.965738825404452,31.017544387808005,9.25742799326245,4.605570358017834,12.695032565629528,11.946248991211739,5.448072807415142,15.302861116266994,2.4237406855287937,4.423527722953293,7.978305916918282,52.18567586680124,24.804053424288202,64.72761252662295,20.81127281198927,11.458806383478763,20.729024395233765,1.1893173093235536,0.3288687499505416,0.586672092784268,0.9052187469286515,-0.811223636632302,-0.38048853612968214,18.17138611876049,13.965738825404456,31.017544387808005,472.91213843710887,224.72335825430568,1196.2656181933964,-18805.352655556493,-14808.474520080728,-731180.0948467387,2
22.774861814279312,14.236315076784885,31.762256341879308,10.083260238750194,5.522644991831355,13.786081102054432,11.687243293719947,6.703313313594164,16.60483387477887,1.1084630923498269,1.6543862590053044,4.526673760135821,47.850390782821776,31.475963189828146,67.90597119882247,20.81127281198927,11.458806383478763,20.729024395233765,0.11076375827895124,0.5437888396008452,0.6502968025880328,-0.9238928594158962,-0.2656445043945648,-0.5350453989044435,22.774861814279316,14.236315076784885,31.76225634187931,655.28598646612,247.60707634570124,1284.5614359362562,-18805.352655556493,-14808.474520080728,-731180.0948467387,2
21.87779697920476,12.716496527477256,26.989674984650318,10.063558286672949,4.3946009701122,11.3009887494507,11.253941685705936,5.481286208109681,14.174693348306967,1.1084630923498269,3.9365485827659965,3.414938253306911,45.059733642570286,31.475963189828146,66.95775476954486,20.81127281198927,11.458806383478763,20.729024395233765,0.16050858265260243,0.9948369787037764,0.7959605541075444,-1.2245314756641628,0.8014830866941565,0.35183916062848164,21.877796979204764,12.716496527477254,26.989674984650318,605.2892041285708,191.75378242855442,929.3644872955971,-18805.352655556493,-14808.474520080728,-731180.0948467387,2
26.325145183704254,12.694036827067798,29.15890810045671,9.240833148965965,4.451562016980504,11.187265057945021,11.443835587053524,5.783771417801385,14.22253143125249,3.2206520362353452,1.6543862590053044,5.642541898600966,47.850390782821776,25.90355483786477,67.90597119882247,20.81127281198927,11.458806383478763,20.729024395233765,-0.0038655494394161517,0.42099271837941094,0.912729308143064,-0.609679059913101,-0.1547822990691783,0.6089664486688733,26.325145183704254,12.6940368270678,29.15890810045671,823.9746418866199,194.59058278032978,1052.5223219238449,-18805.352655556493,-14808.474520080728,-731180.0948467387,2
25.409848156365708,16.71138798065236,36.83370380628763,11.705376339566348,6.339175232839207,15.528384136398344,14.459073863715611,8.04422043445344,19.856242488892644,2.4237406855287937,2.5872063718374205,2.012159089738742,67.03672972807358,46.36565958521337,106.72378404113498,20.81127281198927,11.458806383478763,20.729024395233765,0.6372972680289587,0.7376789469237818,0.8672077366471198,-0.19642778484085177,0.6481281073856744,0.7446833764098044,25.40984815636571,16.71138798065236,36.83370380628761,854.725200325946,343.97997063797055,1750.992101867032,-18805.352655556493,-14808.474520080728,-731180.0948467387,2
43.67547938058408,32.59646179355047,28.051405194363024,18.392743212110737,16.4505040348734,9.575318822386263,26.205771265366252,30.9315876034904,12.877429430227025,4.9364920634355975,5.315765176106481,1.7959355217929793,146.7998359742815,179.60291316671933,65.60807260257957,20.81127281198927,11.458806383478763,20.729024395233765,1.946133929564276,3.763642020196986,0.5566296477929163,6.049803543764291,15.305854002779558,1.0562290596613115,43.67547938058407,32.59646179355047,28.051405194363017,2594.28994673652,2019.2924331307966,952.7095221088136,-18805.352655556493,-14808.474520080728,-731180.0948467387,2
61.88970712817694,21.26056950688,78.75726639065275,32.29699263841615,10.662555995926974,71.19678031470502,87.62926396759484,18.3997411189977,369.9060716375142,2.47580294264137,1.286551757935887,6.108366151735178,945.0201566201001,147.2864226012,4037.0695358999997,29.50391093420253,9.929238028037187,24.91610813248697,8.85885691354541,4.109056576592547,10.561534761819049,86.03011898264556,22.549422085172605,110.03617016764845,61.88970712817692,21.260569506879992,78.75726639065272,11509.223751913929,790.56228900301,143033.20884362602,-58840.679434483034,-4091.9476908356137,-596544.5800959896,2
44.329201708002124,13.29363482309912,34.31246729715286,18.161581336255708,4.5367925809791005,14.439303804050226,22.63347037776143,5.2237564868372885,16.41256766320819,7.719627259283331,4.955888196596999,9.225533073421417,103.60702567987543,23.178404749991575,59.651567427410775,29.50391093420253,9.929238028037187,24.91610813248697,0.5162471922761018,0.08209660784876405,-0.24852611566109425,0.22042139962878782,-1.1182622251265557,-1.2734753936447643,44.32920170800213,13.29363482309912,34.31246729715286,2477.352105409743,204.0083586436882,1446.7177893175713,-58840.679434483034,-4091.9476908356137,-596544.5800959896,2
38.19326490773997,12.838154805575048,32.91137480461993,15.440815372464908,4.865981774602845,12.421933518831029,20.05692877847283,7.049904053714639,16.77802849882778,12.366305708114602,3.194723388839215,6.508511302853391,95.92351356909467,35.99980363910741,77.6832386181429,29.50391093420253,9.929238028037187,24.91610813248697,1.095942605625456,1.5169282883923567,0.893129646437471,1.009317684081461,2.6411173831341515,0.7911907910287974,38.19326490773997,12.838154805575048,32.91137480461993,1861.0058763375332,214.5193659784918,1364.660831837649,-58840.679434483034,-4091.9476908356137,-596544.5800959896,2
32.01528886034858,12.62684875708175,29.462165178615283,11.961191162812911,4.4744143205926195,10.95134958301676,15.762649622863027,5.643267902663511,13.76963261753526,3.6780830477807673,0.3778648752639032,4.012400452089015,95.92351356909467,35.99980363910741,77.6832386181429,29.50391093420253,9.929238028037187,24.91610813248697,0.8038541650754584,0.38049869005987963,0.5494283162118201,1.3507031602760788,1.079797922770485,0.3408504647422981,32.01528886034858,12.626848757081756,29.46216517861529,1273.439843944704,191.2837821554493,1057.621959433902,-58840.679434483034,-4091.9476908356137,-596544.5800959896,2
47.05629616100779,12.75636458365781,32.905815615166425,18.277098575033534,4.408760948694136,12.743980097381629,22.84331446958809,5.131826185841814,15.251630137318019,7.719627259283331,4.955888196596999,9.11640731459159,103.60702567987543,23.178404749991575,59.651567427410775,29.50391093420253,9.929238028037187,24.91610813248697,0.25923062041611783,0.27413715619776,-0.11416112388808583,-0.1663226714051187,-0.9714189479191595,-1.0156262838586356,47.05629616100779,12.75636458365781,32.905815615166425,2736.11202434897,189.06047739289102,1315.4049231448776,-58840.679434483034,-4091.9476908356137,-596544.5800959896,2
53.55091655092936,18.94326683854212,47.454157198849664,22.15891538806593,5.959740234595153,13.007486347320032,26.819523058503815,7.117505831092199,16.266805951665965,15.774172936301088,6.975714563795459,15.719717195516806,109.65566553928934,32.52993666925135,84.8908859778087,29.50391093420253,9.929238028037187,24.91610813248697,0.5022021658347908,0.28321262177817397,0.260124080592008,-0.6667754270825879,-0.886949885026791,-0.3155491531576584,53.55091655092936,18.94326683854212,47.45415719884965,3586.987480530218,409.506247771841,2516.506011322289,-58840.679434483034,-4091.9476908356137,-596544.5800959896,2
54.60814810217225,21.0367537735101,44.48282576764773,23.479183274926598,10.403642243755161,20.668262032421108,31.4005291954704,15.706409768115837,26.192419951100142,2.47580294264137,1.286551757935887,6.108366151735178,215.33608696543448,115.19765164919896,132.62724529478206,29.50391093420253,9.929238028037187,24.91610813248697,1.8125759133637758,2.9551698774965076,0.9820241353433314,6.165719330887114,13.634545995087237,0.9893788113854645,54.60814810217223,21.0367537735101,44.48282576764773,3968.0430729043665,689.2363171312562,2664.7646511696935,-58840.679434483034,-4091.9476908356137,-596544.5800959896,2
51.95945724760458,25.092810419598088,72.25675820313714,28.044238127219252,14.115324418214344,59.85617603291905,70.95632649239747,36.633419947032564,362.76419319072875,4.721496728538814,0.7003532829260968,2.8725070869867455,918.2054295388,421.29820281890005,4992.715128,33.1104124405242,14.448443762377043,29.930240444408295,9.929292989341462,8.34321034778682,13.414992292231986,116.88260294742258,80.38281737081671,178.97517587904053,51.95945724760457,25.09281041959807,72.25675820313717,7734.585466761351,1971.6565917695332,136818.89896734702,-50875.88106785996,-11248.162796104774,-762843.7215453952,2
35.51142843148636,13.80334136380831,36.7140843095628,16.258182673940425,6.863865588363201,17.61704019465,19.744626391887415,8.247665803831262,21.532861010352782,5.40511881478601,1.9256334023447967,5.269468539092589,77.51859030995038,32.40084532645179,83.84180452242437,33.1104124405242,14.448443762377043,29.930240444408295,0.725289789426569,0.81045320568521,0.6671731698556883,-0.4003561078483502,-0.5042124777114707,-0.551888529993001,35.51142843148636,13.80334136380831,36.71408430956281,1650.911820599795,258.55622401750907,1811.5880899808567,-50875.88106785996,-11248.162796104774,-762843.7215453952,2
