accX_mean,accY_mean,accZ_mean,accX_mad,accY_mad,accZ_mad,accX_std,accY_std,accZ_std,accX_min,accY_min,accZ_min,accX_max,accY_max,accZ_max,accX_iqr,accY_iqr,accZ_iqr,accX_skew,accY_skew,accZ_skew,accX_kurtosis,accY_kurtosis,accZ_kurtosis,accX_sma,accY_sma,accZ_sma,accX_energy,accY_energy,accZ_energy,accX_entropy,accY_entropy,accZ_entropy,Tremor
9.156800936909196,12.872533703247422,66.80763493464379,8.751232486108586,18.77244289863524,123.33663068366543,49.517787193962654,105.15610017211418,963.3049803609757,0.26765960306327946,0.12099276368402308,0.15233281668411874,771.9829879008,1618.7085602799998,15052.208263,3.2946944443817396,1.9022197521837776,3.9640662062477623,15.052053490160723,14.707914034348704,15.49172904319747,228.77339405443203,220.90274255142415,237.99718378189007,9.156800936909187,12.872533703247413,66.80763493464381,2535.858251984753,11223.507527348957,932419.7452738208,-3685.288198184586,-19714.575784147844,-2489488.1410515825,0
4.6491788731707455,2.4630319583506513,5.44341043611695,1.8081052418715824,0.9708430320282292,2.2595840951773596,2.2463158128076954,1.2051958686959054,2.893746192831099,0.5345479629572387,0.20338778474419808,0.41290956676603363,12.618502853432693,6.341349552725947,18.615704353873152,3.2946944443817396,1.9022197521837776,3.9640662062477623,0.48627879589765066,0.5844514849629869,1.042823255036274,-0.000516110578792528,0.02151681996480681,1.9122676043659625,4.649178873170746,2.463031958350653,5.443410436116949,26.660798925607104,7.519023509778333,38.004484204551396,-3685.288198184586,-19714.575784147844,-2489488.1410515825,0
3.543383104720739,2.1622896514412626,5.479206925387593,1.6131874714434185,0.9759857046521319,2.305798230858795,2.018335697275291,1.2221541950198342,3.1090584570966993,0.060860462779359505,0.1708938605194116,0.22151241709836167,10.057304562661171,6.851184714526628,19.240971019784233,3.2946944443817396,1.9022197521837776,3.9640662062477623,0.7421817192513963,0.9154291434461743,1.206280801944424,0.30941063591603335,0.8747508634301155,2.7659115850844396,3.5433831047207383,2.162289651441262,5.479206925387592,16.62924281371611,6.169157413134555,39.68795302085985,-3685.288198184586,-19714.575784147844,-2489488.1410515825,0
3.5528179096842947,1.8912881669613517,4.500477744598861,1.5484160503863362,0.7757595550705578,1.9266247167385189,1.9149673037428132,0.9538274377887118,2.419120398284231,0.060860462779359505,0.1708938605194116,0.15734869274197594,10.057304562661171,4.588649904583092,11.95127323517005,3.2946944443817396,1.9022197521837776,3.9640662062477623,0.6409290229672628,0.603445201619571,0.48692793677066615,0.3690591447807261,-0.3734656000373575,0.012963490063592431,3.552817909684296,1.8912881669613508,4.500477744598862,16.28961487377751,4.4867577115666055,26.106443431024513,-3685.288198184586,-19714.575784147844,-2489488.1410515825,0
4.277522838184184,2.5745761908959,6.048843127400696,1.7885998213312748,1.0719183341777965,2.562347182035598,2.217689794425993,1.2967252172837016,3.3754155734938034,0.47146060525358074,0.21507869687595976,0.41290956676603363,12.618502853432693,6.851184714526628,19.240971019784233,3.2946944443817396,1.9022197521837776,3.9640662062477623,0.6299568097068415,0.5644716043112196,1.1834925117936377,0.27851843596415105,-0.030319336894589988,2.052719484874011,4.2775228381841846,2.5745761908958995,6.048843127400696,23.215349655488488,8.3099388518675,47.98193347368714,-3685.288198184586,-19714.575784147844,-2489488.1410515825,0
4.875956755004553,2.2764452591609046,5.630379698434509,2.037031981235455,0.9707383245149577,2.377776650051923,2.5834804968211236,1.2449989022322865,3.1131679404164623,0.5143566067677274,0.12099276368402308,0.21734678106159766,15.186043416895052,5.919182708548133,17.982948246327712,3.2946944443817396,1.9022197521837776,3.9640662062477623,0.8127212862060159,0.8542575699011178,0.916873398052988,0.7910927671005243,0.4936698849509935,1.1797980817260028,4.875956755004551,2.2764452591609072,5.630379698434509,30.449325754129628,6.732225284515769,41.392990173780355,-3685.288198184586,-19714.575784147844,-2489488.1410515825,0
8.927574416434561,15.942178321581993,2.5382419212240923,7.871353450057557,17.640156531514684,1.450817533766165,11.500256411645925,35.195375516586964,3.2090914072016465,0.26765960306327946,0.18753298409353053,0.15233281668411874,52.627600282546,237.0358233432496,23.740744645810086,3.2946944443817396,1.9022197521837776,3.9640662062477623,2.2929366228111925,4.612695562914796,5.110334417149101,4.812774919945373,23.26805136388981,28.506640878746104,8.927574416434561,15.942178321581993,2.5382419212240923,211.95748249458018,1492.867507390688,16.740939710434816,-3685.288198184586,-19714.575784147844,-2489488.1410515825,0
6.398044599480057,4.314156672267073,56.70813463280553,5.877504050391892,4.746309718580396,105.26977715854795,22.510831043045034,20.940091460184455,813.726814323077,0.4026021263309211,0.08531570136134291,0.1784516156088496,304.3704079995,277.96531725239987,12583.811616499996,2.2168369328390507,1.1986540830098678,3.136001740123831,10.789950161567477,11.23021200080043,15.329619331950042,131.0062540868688,133.34727441425022,232.9995781688243,6.398044599480064,4.314156672267069,56.70813463280549,547.6724889454558,457.0993781537564,665367.1408819157,-967.1027206473896,-744.0830234836598,-2059959.7447042137,0
2.903406996142604,1.4896573929802266,3.921146474262626,1.2865093160040357,0.6138229370179724,1.7656937323474078,1.6382283773436175,0.7795554393181245,2.223591397196498,0.1803442917046253,0.056896129871423,0.22130281583253714,8.855248432746922,4.531393286222009,10.97502975846278,2.2168369328390507,1.1986540830098678,3.136001740123831,0.9069645671038373,0.7173029090154226,0.7757177171100926,0.826554425279908,0.7421565880023571,0.20661378065621339,2.903406996142603,1.489657392980228,3.9211464742626245,11.113564401583712,2.826785831431124,20.31974837430849,-967.1027206473896,-744.0830234836598,-2059959.7447042137,0
3.0359136444234687,1.47692582127193,3.515331290231028,1.2222074327514105,0.6718037641714518,1.714630636846318,1.5390951702529476,0.8299490765306355,2.1226157869802447,0.13747692223626334,0.07220937075474732,0.057117574270757,7.64613444441659,4.028590642517362,9.201455701067863,2.2168369328390507,1.1986540830098678,3.136001740123831,0.5871797137417272,0.7395745599437186,0.7629721534370565,0.046817944829411484,0.052066648377090186,-0.07268875937380326,3.035913644423469,1.4769258212719305,3.51533129023103,11.585585599492541,2.870125351173821,16.863051859215123,-967.1027206473896,-744.0830234836598,-2059959.7447042137,0
2.7445977670176855,1.3875448071166758,3.557867662665329,1.167983426292849,0.579545018972462,1.5098475104002869,1.5049510439876783,0.7387926782838625,1.9764547498032294,0.1803442917046253,0.056896129871423,0.22130281583253714,8.855248432746922,4.531393286222009,10.371708518614563,2.2168369328390507,1.1986540830098678,3.136001740123831,0.8563297122396797,0.835333396989931,0.9724565433335975,0.9439300288952679,1.4765424310177062,0.8865383957845863,2.744597767017687,1.3875448071166765,3.5578676626653274,9.797694547518075,2.471095213242298,16.564795683059387,-967.1027206473896,-744.0830234836598,-2059959.7447042137,0
3.344638766189499,1.4801741244358504,4.6405533613385845,1.4615909115965149,0.6213858964857244,2.000725888705677,1.8731247069778207,0.7571567060369728,2.5070808003317926,0.6160388170288995,0.08531570136134291,0.1784516156088496,12.786178719210616,3.8565465568750956,13.128233573331656,2.2168369328390507,1.1986540830098678,3.136001740123831,1.25481347369492,0.5524318549734377,0.6205613574503416,2.6553163063266263,-0.07884533541762728,0.13908589557968698,3.344638766189499,1.4801741244358508,4.640553361338586,14.695204644188363,2.764201716146195,27.820189638823155,-967.1027206473896,-744.0830234836598,-2059959.7447042137,0
5.45349926630222,3.8724219506697546,1.8561675414263576,4.028019372912826,2.195688421231831,0.8068901331530749,8.696300242719323,3.443361354407594,1.0368157585456972,0.4026021263309211,0.682310858348901,0.1833555079624304,70.61181527822288,19.825534003637713,5.605638457486797,2.2168369328390507,1.1986540830098678,3.136001740123831,5.856472492684776,2.753596125645863,1.243067534555778,39.615461732174154,8.968746927614392,1.555996876672065,5.453499266302219,3.8724219506697555,1.856167541426358,105.36629215907898,26.852389181056644,4.520344859013459,-967.1027206473896,-744.0830234836598,-2059959.7447042137,0
88.76762923230463,77.45633726342412,3.9985134659423616,29.855470976581675,56.79246281788869,0.8928807007428142,35.15727951501241,60.846250365634575,0.9896634610128793,43.98442276743212,24.347045676469598,2.976979396867542,129.86484040430057,162.64503149025714,5.337834517056583,2.2168369328390507,1.1986540830098678,3.136001740123831,-0.15611208658164358,0.6442839048409827,0.4485501895452039,-1.5,-1.5000000000000002,-1.4999999999999991,88.76762923230463,77.45633726342412,3.9985134659423616,9115.726302420617,9701.750365822789,16.967543703386394,-967.1027206473896,-744.0830234836598,-2059959.7447042137,0
11.598108786447668,7.717327194565992,63.2352868962662,12.861780386237843,8.913337954599953,116.49454785496769,66.76005434447016,33.03502724650572,891.026363573806,0.2979517230174209,0.10403300064882363,0.17957791996076397,1002.8084108630001,464.4194487521,13634.850112,2.9547797323013585,1.5812628647562543,3.206994973943115,14.134223469061785,11.820647574184457,15.165573837003862,205.78106919436277,155.51269977889189,227.99788310444887,11.59810878644766,7.717327194565988,63.235286896266174,4591.420983498885,1150.8701642053632,797926.6820924131,-7856.6363869670595,-1800.7806914465511,-2241312.4760424565,0
3.691002564568641,1.875592782903674,4.341358685268534,1.709449124747159,0.8144618803446859,1.8890102445105859,2.2291233128148247,1.0272512982068651,2.5035449027044696,0.08670620137399142,0.044407228953235615,0.23198395917175157,12.060817277331791,5.073611615454671,17.669336666618733,2.9547797323013585,1.5812628647562543,3.206994973943115,1.019249330662238,0.638365842608092,1.4686525479910888,1.0673979869539227,0.14002938942911358,4.599603604542683,3.691002564568639,1.8755927829036754,4.341358685268535,18.592490675386813,4.573093516948043,25.115132314014065,-7856.6363869670595,-1800.7806914465511,-2241312.4760424565,0
2.526279516868642,1.344043877028949,3.367295404108975,0.9883474555837113,0.582414722841971,1.3904491945809865,1.2503290236304097,0.7188765409372655,1.7121892178978537,0.257580882400944,0.0869135971740279,0.27271240922373197,6.3692532670430655,3.3570180954017212,8.32708251589812,2.9547797323013585,1.5812628647562543,3.206994973943115,0.6479878815335578,0.6485268722787512,0.43278819040839683,0.04931701056180682,-0.11368763613055988,-0.339152183023403,2.526279516868643,1.344043877028949,3.367295404108974,7.945410864682639,2.3232374244889358,14.270270256419083,-7856.6363869670595,-1800.7806914465511,-2241312.4760424565,0
2.4713254042603348,1.4627752637249372,3.6552746307789197,1.0811085769727835,0.6593145222312603,1.6092149402391311,1.3483773284616587,0.82291213351108,2.117450582171613,0.08670620137399142,0.044407228953235615,0.23198395917175157,6.3692532670430655,4.48985489248952,16.791362007377,2.9547797323013585,1.5812628647562543,3.206994973943115,0.676995121729006,0.7796557880830887,1.3092557155033238,-0.1682507743227939,0.5318532793388271,4.980779841309293,2.471325404260334,1.4627752637249376,3.6552746307789206,7.925570673651903,2.8168958516453184,17.844629594354878,-7856.6363869670595,-1800.7806914465511,-2241312.4760424565,0
3.9488625948499894,1.8580961930574382,4.534044066965414,1.7073330800127138,0.7794730963963415,1.9188322767238173,2.204181755930535,0.983887070916437,2.512412801474173,0.22258930017196688,0.105194609873556,0.7274368197719758,12.060817277331791,5.073611615454671,17.669336666618733,2.9547797323013585,1.5812628647562543,3.206994973943115,0.8824068413363267,0.6982431663698478,1.1863674232544887,0.7973157150905061,0.36762515431639153,2.7437365591620297,3.948862594849991,1.8580961930574393,4.5340440669654125,20.451933006182422,4.420555230971075,26.86977368619556,-7856.6363869670595,-1800.7806914465511,-2241312.4760424565,0
4.9327040497680725,3.3119697459513278,4.786201167572116,2.29916119455709,1.9583717765652624,2.6373632424197915,2.8532804591306817,2.5793285821162786,3.469579777543169,0.2979517230174209,0.10403300064882363,0.17957791996076397,15.653227966956225,14.010725720085173,18.899635676259283,2.9547797323013585,1.5812628647562543,3.206994973943115,0.8098813931530487,1.5128388606841474,1.5326753606959564,0.7717192647425093,2.847056345162904,2.9637191530589817,4.932704049768074,3.3119697459513278,4.786201167572116,32.47277862105535,17.622079532618873,34.945705449205185,-7856.6363869670595,-1800.7806914465511,-2241312.4760424565,0
31.808969241294957,31.587449295658214,2.8549052203902257,25.660473918728446,24.661840520877984,1.8445667818534341,38.96791083932382,33.99221162488997,2.7116907193593374,1.0827327124433406,2.329204298081006,0.47211750290177423,187.88818956370943,146.5416744775203,11.52174241769104,2.9547797323013585,1.5812628647562543,3.206994973943115,2.806877015772229,2.053769947779151,2.012124725668517,8.365985983331623,3.7227168052504673,3.418054264408781,31.808969241294957,31.587449295658214,2.8549052203902257,2530.3085993751397,2153.2374041570833,15.503750374870922,-7856.6363869670595,-1800.7806914465511,-2241312.4760424565,0
6.975548686512107,6.599520087900175,47.86618698341552,6.637588793005248,7.938961895432493,88.26863582440656,39.23366919311159,25.09162557020706,683.7352146485432,0.48559285985839673,0.21739564503498754,0.1038951652840499,606.7308207339997,329.58258099800014,10595.968167999992,2.104210083520743,1.4022539056295447,2.5763542202317313,14.95743228382105,10.040700827318224,15.36220282975152,225.49963758890055,117.19773562607698,233.99960340260495,6.975548686512101,6.5995200879001805,47.866186983415474,1587.9390778324141,673.143339146067,469785.0156068208,-3088.140248039337,-1499.3559915536473,-1708738.512432831,0
2.818724948592652,1.7109207838193277,3.543020235212226,1.1514520285084517,0.7208965356959823,1.5173481480332904,1.4695914850221548,0.8930723883994519,1.9588061424721048,0.10989013614942401,0.12070960037719207,0.20630738660983727,7.935492567988621,4.731381662034808,12.845854154482323,2.104210083520743,1.4022539056295447,2.5763542202317313,0.8101276621073127,0.6336961860350699,1.1390292179619057,0.613576367688458,0.35870615518844806,1.9976085984352903,2.8187249485926524,1.7109207838193268,3.543020235212225,10.104909468668275,3.724828219426441,16.38991389090974,-3088.140248039337,-1499.3559915536473,-1708738.512432831,0
2.733193256376569,1.4578751579625067,3.128233235473512,1.0604632154250144,0.6153816229229887,1.3650434643652554,1.3275187480386184,0.7636675110453488,1.669325708440396,0.10989013614942401,0.12070960037719207,0.20630738660983727,6.812009197766825,4.731381662034808,9.369060314575536,2.104210083520743,1.4022539056295447,2.5763542202317313,0.6393173682083662,0.7284862895863574,0.663977597778585,0.26942120832470184,0.701158930864568,0.2715017887688287,2.7331932563765684,1.457875157962506,3.128233235473511,9.232651403096373,2.7085880436304004,12.572491496381103,-3088.140248039337,-1499.3559915536473,-1708738.512432831,0
3.2760783995445806,1.8436195970408762,3.9619152849716275,1.243430537651687,0.7473307901080777,1.6329802427862847,1.5458697971555535,0.9179790369383479,2.098696916899444,0.1701288397848856,0.39180611717742875,0.2932965931252259,7.935492567988621,4.498573623904067,12.845854154482323,2.104210083520743,1.4022539056295447,2.5763542202317313,0.5188716761575887,0.6630952223052639,0.8975822767796254,0.012861932525663367,0.022021062444767647,1.154732025473562,3.2760783995445806,1.8436195970408764,3.961915284971626,13.122403109720338,4.24161873085142,20.101301474295028,-3088.140248039337,-1499.3559915536473,-1708738.512432831,0
3.6861598748251354,1.3424451001230073,4.20481742088437,1.6997270679741892,0.5409450702347997,1.6691031038842445,2.151711855099118,0.6558434119297322,2.0274275548611387,0.48559285985839673,0.2221733898223623,1.1544260170098328,10.349920858623902,2.883581463987197,9.170345342526952,2.104210083520743,1.4022539056295447,2.5763542202317313,1.0131105177068949,0.3386260339673269,0.6324233457558514,0.8752896180103007,-0.4412450027907484,-0.15525852328807455,3.6861598748251367,1.3424451001230073,4.204817420884371,18.21763853014495,2.232289427815904,21.790952033182915,-3088.140248039337,-1499.3559915536473,-1708738.512432831,0
3.4559964859581522,3.7190303640018976,2.984637955199055,1.3509895150175777,2.642472713377313,1.5401558297489046,1.7172360665841107,3.6104608282957007,1.959692128158803,0.6117729702376876,0.21739564503498754,0.1038951652840499,9.542146830792875,19.402418163548468,8.95799646250513,2.104210083520743,1.4022539056295447,2.5763542202317313,0.9162758003805286,1.9340853093038646,1.0738863158934775,1.243217953465666,3.846201764672558,1.0273230113567768,3.455996485958153,3.719030364001898,2.9846379551990543,14.892811419332373,26.86661424102576,12.748456960782368,-3088.140248039337,-1499.3559915536473,-1708738.512432831,0
18.72403179955104,43.45559024467407,2.8506753367483815,10.458954858200277,27.699872600549323,1.7636747964638075,13.542042328097144,37.0163868924197,2.6058164265035275,3.0874721293982663,11.312943643920114,0.6173867582223489,53.84692090835212,146.35084006344934,10.05207712556094,2.104210083520743,1.4022539056295447,2.5763542202317313,1.280884589313689,1.5944023534153233,1.8124777475838934,0.8048406608193979,1.6356837457114164,2.1115565026616725,18.72403179955104,43.45559024467407,2.8506753367483815,533.9762772465732,3258.601222082313,14.91662912418111,-3088.140248039337,-1499.3559915536473,-1708738.512432831,0
4.83133968871039,2.9679552172665464,25.61163066455896,4.199611257341374,2.507072559311093,44.553169649663275,21.503360327771475,7.422180689750018,342.2271667150343,0.0624058903841821,0.07520306103006559,0.21427057851780315,323.9881291719,77.23371877197079,5260.6090645,2.1437960816997457,1.5899550857509221,2.1987525302940263,14.043549863744946,8.723458786892314,15.23105653944403,203.90517115609083,82.69025056669781,229.99153265462706,4.831339688710387,2.9679552172665478,25.611630664558977,485.7363485736844,63.897524362997785,117775.38926309769,-1782.4804993576638,-320.77966841855044,-795570.844035186,0
2.3873995789322784,1.1010204335767524,2.839799312832346,1.0902707496736832,0.42980267098286373,1.043651764559678,1.2980010430636384,0.5076355633688825,1.1863168046157981,0.7032542836672572,0.26816339087173546,1.1917916440840008,5.308309688038804,2.137151139880134,5.4266199983571,2.1437960816997457,1.5899550857509221,2.1987525302940263,0.6840926236958316,0.3291431659219486,0.27930874409766165,-0.5394496333542733,-0.7747664809320782,-0.974605058778411,2.3873995789322784,1.1010204335767524,2.839799312832346,7.384483457280314,1.4699398603503817,9.471807698076903,-1782.4804993576638,-320.77966841855044,-795570.844035186,0
2.032686334486285,1.0650320724358309,2.607154831578669,0.8462262893786118,0.45872038418426375,1.1488165168679465,1.0733253812415329,0.5767194339782928,1.4611136537408682,0.0624058903841821,0.07520306103006559,0.282114530240757,5.308309688038804,2.660154600161192,8.231879879064454,2.1437960816997457,1.5899550857509221,2.1987525302940263,0.5539524229629679,0.7352547925447575,1.0066407627704133,-0.010773458054812668,0.138296487160523,1.2605884481049285,2.032686334486285,1.0650320724358306,2.6071548315786686,5.28384110842457,1.4668986208452028,8.932109424971985,-1782.4804993576638,-320.77966841855044,-795570.844035186,0
2.567304998331752,1.314342750321739,3.035909497482126,1.1027503286136353,0.563165950734826,1.3788396514600008,1.3875931503041805,0.7267384773367499,1.7805151728485893,0.3076384144676372,0.2800531099304992,0.49532154442488874,6.272765863629914,3.4187498855617235,7.912009835096711,2.1437960816997457,1.5899550857509221,2.1987525302940263,0.5909781121559664,0.840804091162215,0.9936332792810605,0.14821695563730541,0.44231279412358804,0.6858693852391444,2.5673049983317524,1.314342750321739,3.0359094974821264,8.516469705230278,2.2556456797650504,12.386980757646217,-1782.4804993576638,-320.77966841855044,-795570.844035186,0
2.915361576035926,1.1939695506939907,2.320220208083375,0.22469913763574878,0.1686996613765137,0.32423256521477584,0.22469913763574878,0.1686996613765137,0.32423256521477584,2.690662438400177,1.025269889317477,1.995987642868599,3.1400607136716747,1.3626692120705044,2.6444527732981506,2.1437960816997457,1.5899550857509221,2.1987525302940263,0.0,0.0,-1.1196519472825187e-15,-2.0,-2.0,-1.9999999999999998,2.915361576035926,1.1939695506939907,2.320220208083375,8.549822821480927,1.4540228637329604,5.4885485703442125,-1782.4804993576638,-320.77966841855044,-795570.844035186,0
3.4397269894563647,2.676195556466185,3.6241822442762,1.6197104395181199,1.41579888620234,1.4306163280378432,1.9844378360909778,1.7624625068493596,1.854304939917886,0.4517899057651271,0.44696118198434276,0.21427057851780315,9.351304426008632,8.191134998658173,8.552690906012199,2.1437960816997457,1.5899550857509221,2.1987525302940263,0.5613320044152451,1.0681577514818794,0.44303464670980525,-0.22630467158389767,0.7343770476700282,0.0536611716314761,3.439726989456366,2.6761955564661846,3.624182244276201,15.769715287303994,10.268296744499082,16.57314374993075,-1782.4804993576638,-320.77966841855044,-795570.844035186,0
14.238461268806589,20.29621468254244,2.7442578697688997,10.588311208517418,18.17603773576098,0.8396557196855164,17.75374332107716,25.2600270375906,1.143676903677038,1.5831470922641113,1.421573975507094,1.0840177286384227,71.83856744757018,77.23371877197079,5.452354598010876,2.1437960816997457,1.5899550857509221,2.1987525302940263,2.5136328834702826,1.6218917291055435,0.6625401491285805,5.60022531627358,1.0499648699206139,0.2807325115938637,14.238461268806585,20.29621468254244,2.7442578697688997,517.929181213997,1050.0052963796593,8.83894811579284,-1782.4804993576638,-320.77966841855044,-795570.844035186,0
5.82195301596416,4.010426923045283,26.71710957655148,3.7341238782902786,3.456103619884855,43.76596042681555,16.527842655206125,10.938302863058459,486.87759871923134,0.09870935816798722,0.19138121544092462,0.2177609427268354,347.0108343184,159.55040023514513,10836.909335,3.338692237286139,2.211119431493275,3.5741049762829205,18.26590219927078,10.798033451279654,22.15705442266557,366.974691798361,134.85992683412397,488.957458420467,5.821953015964155,4.010426923045288,26.71710957655146,307.06471975534527,135.72999362907936,237763.6000787302,-1209.7311047968485,-682.5549639962367,-1749353.1272548675,0
3.1870883414892535,1.4792882016590352,3.298050475078034,1.522131094589076,0.6735689201356311,1.5575644401162407,1.8918985644907984,0.8599851015678889,2.0217275576815292,0.09870935816798722,0.19138121544092462,0.2177609427268354,11.16425079301677,4.487515558939409,13.371531251252044,3.338692237286139,2.211119431493275,3.5741049762829205,0.6874850747404249,0.9961873027301344,1.2092549626176192,0.3240449915270429,0.8639737031840133,2.711157118552891,3.187088341489255,1.479288201659035,3.298050475078033,13.736812274779068,2.927867958486354,14.96451925365136,-1209.7311047968485,-682.5549639962367,-1749353.1272548675,0
5.12035177355038,2.4130815507404315,4.794493527395396,2.443571564932851,1.1408438173729725,1.8278209198416866,2.9401240395866255,1.3012083466718796,2.3829530073432443,0.4358848381958678,0.4286220766407953,1.8142425539767204,12.727232797846112,5.558509694908895,12.33073241954462,3.338692237286139,2.211119431493275,3.5741049762829205,0.5656344364131147,0.43367724053353607,1.065494258311098,-0.16347134188024892,-0.7739339075602216,0.9075179569933076,5.12035177355038,2.4130815507404315,4.794493527395395,34.8623316530557,7.51610573197241,28.665633219442547,-1209.7311047968485,-682.5549639962367,-1749353.1272548675,0
3.5950609156630877,2.4935728176005356,6.0416741856095815,1.6703720652542835,1.151846345513822,1.8178133747192327,2.33196513259337,1.4672421073820652,2.9985728575541253,0.7737255666253835,0.2454663257238393,2.184927769034367,10.524396696266994,6.333992677809536,16.489110710918663,3.338692237286139,2.211119431493275,3.5741049762829205,1.5321374429195267,0.6964044181472396,2.2956612540250783,2.2634745034751536,0.5226933499775179,5.934768119497127,3.5950609156630873,2.4935728176005356,6.0416741856095815,18.362524366959533,8.370704798351237,45.4932661471215,-1209.7311047968485,-682.5549639962367,-1749353.1272548675,0
5.986751744226036,3.876246022520306,7.348399886774003,2.337295822549108,1.693917270938672,3.1971328751241024,3.0068863381039903,2.160025650010253,4.067475411346869,0.7046940364072551,0.5142331442507968,0.6139665469870121,17.841945195003113,9.779952028544251,21.848174933688767,3.338692237286139,2.211119431493275,3.5741049762829205,1.0732908112793023,0.7844493742724009,0.9870085440927704,1.8099581228853348,0.3443744061532166,1.1037278216144841,5.986751744226036,3.8762460225203053,7.3483998867740015,44.88256189726992,19.6909940358067,70.54333711785152,-1209.7311047968485,-682.5549639962367,-1749353.1272548675,0
7.880960733938104,10.812594466600983,4.264168305705929,3.5498105970583222,3.6982310608843934,1.3657972271435896,4.422793976439052,4.933755873336057,1.7624191116321188,1.312930156553849,4.703413916852782,0.7901654270926058,18.065975492315214,25.566149958710124,8.45649883133503,3.338692237286139,2.211119431493275,3.5741049762829205,0.7502291486227964,1.1938720314785085,0.2744592604508404,-0.2142524171216711,1.2312813881717801,0.1082409895880363,7.880960733938104,10.812594466600983,4.264168305705929,81.67064864789978,141.25414611684823,21.289252464433112,-1209.7311047968485,-682.5549639962367,-1749353.1272548675,0
31.34527116991643,46.89689656585146,4.451310137215108,20.524669841409597,30.266335947028843,2.4480482403341286,26.970558419045563,41.92166702319917,2.9388951581173437,3.743200797490141,16.35695583817567,1.1685396511714887,100.4066798047898,159.55040023514513,10.266067793442794,3.338692237286139,2.211119431493275,3.5741049762829205,1.521607306056534,1.8362745571390586,0.650363235389547,1.5055710883522453,2.3338491089529887,-0.8120720716475964,31.34527116991643,46.89689656585146,4.451310137215108,1709.9370461507438,3956.7450735121556,28.451266688079556,-1209.7311047968485,-682.5549639962367,-1749353.1272548675,0
7.60029680299958,4.740317276652212,27.593549896199573,7.848622248547179,4.891384855336499,48.09931123294348,33.50054085923624,18.87053986749667,371.0316696803932,0.1590780752780546,0.07640313779057821,0.10041538490581249,467.0319674198,215.90441911949995,5727.361931,2.791618186572676,1.68205700400062,2.412140945303409,11.844504118247954,10.057227761980823,15.29615662197991,151.73812990376007,103.89526095433142,231.9830827528468,7.600296802999588,4.740317276652214,27.593549896199548,1180.050749355042,378.5678827741087,138425.90390169446,-5259.256279311754,-1742.98333643462,-867023.0262374644,0
2.190360826725987,1.4347110464350983,2.271083705832298,0.9391386326790705,0.634844845569848,1.1316393980286301,1.2049895693282713,0.8082056945822574,1.413950256808801,0.22919298437844207,0.15445890686753314,0.4961383946278906,5.141485227205255,3.3247977279154877,5.894016044281727,2.791618186572676,1.68205700400062,2.412140945303409,0.5647676871509014,0.32176649711083705,0.9994645123543757,0.0005361424744734222,-0.2790248942548561,0.22846570443962433,2.190360826725987,1.4347110464350987,2.271083705832298,6.249680413445683,2.711592231518084,7.157076527626638,-5259.256279311754,-1742.98333643462,-867023.0262374644,0
2.2842094780426345,1.3477171989934849,2.663501474332668,0.885848617259372,0.5303937334747674,1.0709706202320086,1.088905209772282,0.6834447446050229,1.320058319114917,0.018936139800047158,0.07640313779057821,0.201202999999623,5.141485227205255,3.3247977279154877,6.180183692967312,2.791618186572676,1.68205700400062,2.412140945303409,0.4317599483297625,0.20252195435924839,0.7143768918977971,-0.1679854057575989,-0.11732656647462347,-0.02773599479742961,2.284209478042634,1.3477171989934849,2.6635014743326675,6.403327495449019,2.2834383673910694,8.836794069636793,-5259.256279311754,-1742.98333643462,-867023.0262374644,0
2.690589120821524,1.4053733838414966,2.689382992218508,1.2494117563599891,0.5177225387377409,0.9704891851209709,1.4636147159482027,0.6715492603292387,1.1849626241276048,0.22159413383681048,0.24814057168877174,0.10041538490581249,5.485260301283477,3.762895309979859,5.624237491001564,2.791618186572676,1.68205700400062,2.412140945303409,0.009892592444115058,0.847642836151327,0.17558395956396566,-1.0973689569185276,1.0367690978481106,-0.5182077686890936,2.690589120821525,1.4053733838414968,2.6893829922185093,9.38143785382328,2.426052757058846,8.63691729941356,-5259.256279311754,-1742.98333643462,-867023.0262374644,0
2.748104707499242,1.649679894458255,2.837889327541212,1.2035381744501517,0.7336202993579777,1.3046525686064194,1.5332379167562462,0.871001130825349,1.7573072642997551,0.667161660490581,0.3778696843955973,0.3994295081986893,6.925579688604377,3.2782471924329237,7.836284902234327,2.791618186572676,1.68205700400062,2.412140945303409,0.7667552549050554,0.5828144480838214,0.8810196245425284,0.5985082447184449,-0.8136160842511413,1.1047579619179064,2.748104707499242,1.649679894458255,2.837889327541212,9.902897992758527,3.480086724078837,11.141744656533003,-5259.256279311754,-1742.98333643462,-867023.0262374644,0
3.9103748482007488,2.6928380023108613,3.8724156471741877,1.8975629649295505,1.2186220096759248,1.694770950244263,2.499978714155108,1.5968135955998737,2.063819961705966,0.1590780752780546,0.38046235621730995,0.19366369090873894,14.718502206104564,8.628662337528175,11.319307418280095,2.791618186572676,1.68205700400062,2.412140945303409,1.3766221826425273,1.1365279277022473,0.5193320251527297,3.158756372844011,1.318913800895774,0.16037821781848605,3.9103748482007474,2.692838002310862,3.872415647174187,21.540925024669647,9.80119016578215,19.254955778815482,-5259.256279311754,-1742.98333643462,-867023.0262374644,0
26.092374532457,19.080650899972163,4.306843384456756,23.405082700972603,17.52140528122862,3.310521180899191,41.7507849810681,37.07181437514166,5.425151998387984,4.477375067541659,1.642864603363663,0.5335018584879586,207.39444899355286,191.71857450309795,26.818150989868624,2.791618186572676,1.68205700400062,2.412140945303409,3.503030483882488,4.185227708436167,3.0432862122054147,12.021939746913315,16.610138761564436,9.576500142062022,26.092374532457,19.080650899972163,4.306843384456756,2423.9400552773923,1738.3906598315687,47.98117414385206,-5259.256279311754,-1742.98333643462,-867023.0262374644,0
4.702887072659941,3.874281362044688,23.527300645090058,3.2770396069785206,3.858330666371012,39.57538748009436,16.22866735885815,13.648687568585997,352.31796077412224,0.2350444003010974,0.09817937083487045,0.20367340510803014,284.9050906198,179.5076296,6276.4385225000005,2.462117912139285,1.8466426408308676,2.576129129833896,16.34934154832272,10.68058618004696,17.69093695166865,278.35737759318835,123.38281397368789,310.9806241404707,4.702887072659937,3.8742813620446923,23.52730064509008,285.48679106265996,201.29672841716075,124681.47935968041,-1107.4314719859767,-1049.4675054767642,-961543.557442656,0
2.141678596681048,1.1304393918092817,2.1650025482579,0.7764451549501784,0.47537753880653205,1.187993034755965,0.9323296303623504,0.558228439703951,1.3123761711358681,0.5496782131935221,0.35459699262564426,0.2448047760776315,3.636539269970327,2.2495186584140563,4.7471761458026895,2.462117912139285,1.8466426408308676,2.576129129833896,0.12050640077330634,0.5294586952415369,0.20232962489800876,-1.1930473093480767,-0.8041232471585347,-1.2835603095159536,2.141678596681048,1.1304393918092819,2.1650025482579,5.456025751133299,1.5895122094484468,6.409567248528441,-1107.4314719859767,-1049.4675054767642,-961543.557442656,0
2.530824561351951,1.1978712050110607,2.6328311772256843,0.9083433997757576,0.4842493803592342,1.188767043275688,1.069343260326502,0.6175802783053768,1.5592557182521367,0.582516617612944,0.4044004340639726,0.281475659808739,4.728976518690898,3.31905854821656,7.364221782378785,2.462117912139285,1.8466426408308676,2.576129129833896,0.1422558727931781,1.2224189238766083,1.122654701633487,-0.8556668544868149,1.6813168901726376,1.1360106113734947,2.530824561351951,1.1978712050110607,2.632831177225684,7.548567968748011,1.8163008239463971,9.363078402673565,-1107.4314719859767,-1049.4675054767642,-961543.557442656,0
2.926218543533885,1.3085953160790849,3.417130817667222,1.2097352425128316,0.5800978610100205,1.365044428608567,1.483910927235153,0.7208230723670352,1.6531522644683891,0.4369316646947024,0.09817937083487045,0.20367340510803014,6.875020156761579,3.5313215649678904,7.728294702531564,2.462117912139285,1.8466426408308676,2.576129129833896,0.6306733893877169,0.6257842321726849,0.36189528603739746,-0.17511829013643698,0.2672677380030608,-0.5750210836586236,2.9262185435338854,1.3085953160790846,3.4171308176672217,10.764746604489464,2.232007602920772,14.409695434568015,-1107.4314719859767,-1049.4675054767642,-961543.557442656,0
2.867774793411784,1.6960493158411438,3.0308329043422937,1.3233030942496,0.7208320766022632,1.1400179283752236,1.4827617740384402,0.9119482099058311,1.550245286034923,0.39688967511529344,0.28965727360076005,0.7441487349098135,5.7106084266511505,4.644430024677667,8.234772592472101,2.462117912139285,1.8466426408308676,2.576129129833896,0.18806980838209958,1.0929867103199227,1.2201122038830725,-1.1608077872825375,1.739602035281452,2.4532337242148676,2.867774793411784,1.6960493158411434,3.030832904342294,10.422714744277618,3.708232819315659,11.589208540917449,-1107.4314719859767,-1049.4675054767642,-961543.557442656,0
4.113283738835522,3.240178907127991,4.392345932685747,1.9026348555026138,1.7931162357813275,1.9468187703618254,2.410169660144595,2.346943363879065,2.4980505466886376,0.2350444003010974,0.24133152573623096,0.8265917275236058,11.267922828410407,12.73142602425482,12.8410922573964,2.462117912139285,1.8466426408308676,2.576129129833896,0.8752025196007487,1.4298175980179226,1.0602164306824555,0.3900019683592726,2.4192798280817227,0.8808116966153361,4.113283738835522,3.2401789071279925,4.392345932685747,22.72802090685024,16.00690250345313,25.532959326192437,-1107.4314719859767,-1049.4675054767642,-961543.557442656,0
11.609806028715077,22.30771375741518,4.130502782730849,7.760760657469521,18.955837727822097,1.692762745350476,10.433615961092924,32.13752352766896,1.974760618466286,3.0755517101113132,0.840786860467439,0.38450460306516177,41.051700193677476,147.5178565052715,8.067459569800208,2.462117912139285,1.8466426408308676,2.576129129833896,1.666123785384919,3.1111029377365065,0.1396165718871969,1.691639938018084,9.210826452347812,-0.8304994054311314,11.609806028715075,22.30771375741518,4.130502782730849,243.647938047962,1530.4545115742462,20.960732738392636,-1107.4314719859767,-1049.4675054767642,-961543.557442656,0
5.069031964237566,4.357835513111136,24.402457980057584,3.7228332613681325,4.191622116254437,40.02867728308642,13.459680282954269,14.490488930427174,353.53545648165203,0.12930003900760845,0.03385111757546635,0.14949529830940858,222.4851998383,179.65018367299848,6248.8617755,2.9354350659828237,1.845085374330897,3.62623181072681,13.93351555829442,9.952085293298698,17.54853394925076,217.34803375031063,107.4831510371515,305.96853467101045,5.069031964237564,4.357835513111142,24.402457980057587,206.85807837380997,228.9649998021651,125582.79894515853,-852.001984431551,-1370.241159852219,-960526.92827826,0
2.244159664374487,1.4870175699176504,3.5054952314973864,0.7848726061527949,0.4983163758046146,1.522512253481112,0.9286956155460475,0.6956496433975146,1.771831305047168,0.8615852423812206,0.03385111757546635,0.9648963415308087,3.9899575957580247,2.694084125291919,7.03070195015014,2.9354350659828237,1.845085374330897,3.62623181072681,0.4171691717009093,-0.16019118570412955,0.4886741374015302,-0.8768317112483892,-0.2275286016383773,-0.8217398150175499,2.2441596643744868,1.4870175699176507,3.5054952314973855,5.898728145539862,2.695149679602884,15.42788299159606,-852.001984431551,-1370.241159852219,-960526.92827826,0
2.650275263752337,1.4393419944571806,3.157885935715455,1.1658265173235824,0.4378702884410443,1.1837620496258119,1.456654927925226,0.5584972244286679,1.4944757351993558,0.45554786628726107,0.39974595115158695,0.26873265152288456,6.374689534248382,2.809570882447935,6.567542455360196,2.9354350659828237,1.845085374330897,3.62623181072681,0.7968984387031418,0.23429769423756291,0.23619911068059526,-0.022297806689534294,-0.1859958570395177,-0.18754227959955294,2.6502752637523366,1.4393419944571801,3.1578859357154543,9.145802552706364,2.383624526702499,12.205701306089129,-852.001984431551,-1370.241159852219,-960526.92827826,0
2.622996543625238,1.5968743854353293,3.697503589414865,1.121169189739362,0.7128653967630744,1.8165605218336873,1.3730620807372098,0.8912878855613036,2.2159229397206475,0.12930003900760845,0.18230043420836292,0.14949529830940858,7.325625264521562,4.718805823883797,10.577311997675812,2.9354350659828237,1.845085374330897,3.62623181072681,0.6123352941712965,0.8670490097962196,0.7835018908264905,0.061794854746558325,0.4589160483547534,0.06739947322415674,2.622996543625237,1.5968743854353298,3.697503589414864,8.765410345428336,3.344401897807802,18.581847268516,-852.001984431551,-1370.241159852219,-960526.92827826,0
2.854642200867255,2.518485935549942,3.8526558269040208,1.461343919312661,0.3067987336227495,1.6315125923154572,1.5659072166784807,0.3868186937158994,1.951254698267925,0.5668599360961938,1.9261714225872828,0.5480014607288353,4.325397433836818,3.1865124508115046,6.547183983840911,2.9354350659828237,1.845085374330897,3.62623181072681,-0.6509969396391738,0.2939506875505717,-0.2755861765587445,-1.4881609045148487,-0.5671946444382603,-0.8983143260502069,2.854642200867255,2.518485935549942,3.8526558269040208,10.60104750621799,6.492400109370941,18.650351818090154,-852.001984431551,-1370.241159852219,-960526.92827826,0
5.546651650171979,3.271540137883726,5.621960060078947,2.6875289445839576,1.5159413556083687,2.3266929865064983,3.2428257643273795,1.9159908840073088,3.1002743975617366,0.7776088196876566,0.38547000636256307,0.6610718045743408,14.072744843238246,10.258291075341164,21.838022033374152,2.9354350659828237,1.845085374330897,3.62623181072681,0.7188328075644834,1.0595732172878765,1.4914758230576504,-0.23927218019129626,1.0286490680750173,5.647044816739111,5.546651650171979,3.2715401378837266,5.621960060078948,41.281263466140985,14.37399594138338,41.21813625729968,-852.001984431551,-1370.241159852219,-960526.92827826,0
11.077168149293572,20.47564890575012,4.0012425160069816,9.430178216437852,18.346801518341067,1.6134737499969725,14.061203492020988,34.20599757088624,2.1780147549142796,1.461572249107136,1.4756993202115343,1.4455117861799784,63.996550582283106,179.65018367299848,11.371990170048447,2.9354350659828237,1.845085374330897,3.62623181072681,2.363578566098811,3.720298103718413,1.6062461069411704,5.178984319863865,13.98769092020543,2.5482918423143124,11.07716814929357,20.47564890575012,4.001242516006981,320.42109785174716,1589.3024679310217,20.75368994452619,-852.001984431551,-1370.241159852219,-960526.92827826,0
5.216326548639237,6.231023296452826,27.966539190213265,4.072052439549839,7.599396875060358,48.55719563398125,14.847133317772242,27.339572614504018,373.77399012012586,0.27389492473673027,0.13717950065079773,0.15542452145813854,214.73277342230003,293.9419264538808,5757.715624,2.6527036917822193,1.6503146793354488,2.5317287466010034,12.225132226868837,9.29944722058946,15.263689788868271,165.9996953665959,90.79792795141611,230.98829916470208,5.216326548639235,6.2310232964528245,27.96653919021327,247.64743041774113,786.2778820646757,140489.12300459773,-827.5998855033185,-4409.520531250132,-875474.7518068146,0
2.3008365943109883,1.3739135012062569,2.6637293975587895,1.2742244813965464,0.5629131935141283,1.1352272851192386,1.4876778265711055,0.6687106076192287,1.4804894074363504,0.18153664126051414,0.35116780530955655,0.8933714518772553,4.62923057477914,2.4655571177321063,6.935571282924735,2.6527036917822193,1.6503146793354488,2.5317287466010034,0.0175338103972913,0.10262745344668744,1.0262348003621937,-1.3396927549469237,-0.9981271919604606,1.3000007495587873,2.3008365943109883,1.3739135012062569,2.6637293975587895,7.507034349391917,2.334812185539313,9.287303188950144,-827.5998855033185,-4409.520531250132,-875474.7518068146,0
2.005634123798599,1.4765229661295711,2.4916188479450834,0.9729399464832446,0.7399392768778944,1.1484578116099762,1.19636029104119,0.8766679529510532,1.49999669730018,0.2520790355732609,0.30585088004473043,0.22325318625684934,5.410606174901186,3.8453873281881394,7.485309606321484,2.6527036917822193,1.6503146793354488,2.5317287466010034,0.7985847765581385,0.8160245995391078,1.1760778951462194,0.1115537278972818,-0.2753891512901263,1.5583280516205829,2.0056341237986,1.4765229661295716,2.4916188479450834,5.453846184525538,2.9486667692394577,8.458154575346631,-827.5998855033185,-4409.520531250132,-875474.7518068146,0
2.332358000143488,1.4879813555415267,2.714210992630371,1.0850669318223738,0.5934767336142901,1.2429350762765639,1.2945549449034188,0.6959845504239381,1.531324721833862,0.18153664126051414,0.35116780530955655,0.33239017897951995,5.6614830572110515,3.1538912775858825,6.935571282924735,2.6527036917822193,1.6503146793354488,2.5317287466010034,0.3415311371026061,0.30555132385578215,0.681148509522093,-0.5755558644811929,-0.8514823915612393,-0.06910395548789205,2.332358000143487,1.4879813555415267,2.714210992630371,7.11576634620722,2.6984830088680103,9.711896716215096,-827.5998855033185,-4409.520531250132,-875474.7518068146,0
2.551296863157757,1.3981596522298108,3.5759466089117784,1.1313070697122483,0.5853382826690805,1.484111758037086,1.3787481571207576,0.7646457633871477,1.9021939256244629,0.27389492473673027,0.13717950065079773,0.7000715401917701,6.153647341035702,4.053062768662116,8.565879822343716,2.6527036917822193,1.6503146793354488,2.5317287466010034,0.4387937091384271,1.0820034864610473,0.6889834756427549,-0.46091383270176856,1.914491128517632,-0.07027386540857306,2.551296863157757,1.3981596522298108,3.5759466089117797,8.410062164722495,2.539533556589299,16.40573588047026,-827.5998855033185,-4409.520531250132,-875474.7518068146,0
3.7344546601801434,2.457814672653278,3.9384830153187793,1.6343673256182167,1.0655442709448166,1.8357298006282998,1.9606807919604399,1.4077626588617842,2.369948949084119,0.38659358376221536,0.1813223854325228,0.15542452145813854,8.929370285664195,7.703632093129584,10.862329824870757,2.6527036917822193,1.6503146793354488,2.5317287466010034,0.5864278455381559,1.132818061383552,0.8858277885533182,-0.5273154427115916,1.747369211807567,0.46311709642922194,3.7344546601801425,2.4578146726532775,3.9384830153187793,17.790420776903805,8.022648668795338,21.128306483219426,-827.5998855033185,-4409.520531250132,-875474.7518068146,0
12.255239082143941,26.04564250697772,3.4163992093684583,9.26576017622114,27.993647874125987,1.4744134953624932,13.034707052937572,53.81298628232353,2.3088364527011334,0.45028800456981566,1.4759538835956465,0.5902597538518378,58.616023592031254,293.9419264538808,13.034154155389874,2.6527036917822193,1.6503146793354488,2.5317287466010034,1.9915365006651886,4.157485486983275,2.3981699522610134,3.66509966217708,17.5762595918787,7.459234822610954,12.255239082143941,26.04564250697772,3.4163992093684583,320.09447291640873,3574.2129862228257,17.00250932309498,-827.5998855033185,-4409.520531250132,-875474.7518068146,0
5.804639495766879,4.330498845865371,21.71868995335019,5.391183300289764,4.054396935852727,36.13518570396958,29.866029795171663,16.350279746578618,338.98550555621443,0.1596638389027008,0.13407918049999523,0.01501153596985584,549.4500439,276.11485621657704,6363.443781,3.0429129888340185,2.0611561893019545,2.7233782861422258,17.260647343896093,13.879887553805494,18.653831865201653,309.94178459200134,218.49151444831975,345.9779810725447,5.804639495766884,4.330498845865367,21.718689953350186,925.6735754018987,286.0848680454203,115382.8744704921,-4763.61050111168,-2361.2694238778486,-976125.0241773062,0
2.616644885649364,1.7165647545939424,2.8777133735872527,0.9834899746510839,0.5307719765737106,1.1666620373815322,1.2526986144566221,0.6957012900831508,1.3647299758856208,0.4699328655953113,0.16971269586960996,0.6851313666730285,5.685258609486721,3.4610904734440684,5.958490406256585,3.0429129888340185,2.0611561893019545,2.7233782861422258,0.5818442690483605,0.2802310610734205,0.2323862519725418,-0.17510366142343337,0.2515557643795745,-0.8217502490819846,2.616644885649363,1.7165647545939424,2.877713373587252,8.416084276256509,3.4305948417375216,10.143722167603691,-4763.61050111168,-2361.2694238778486,-976125.0241773062,0
2.295468755428904,1.6898475657199938,2.5611402416649205,0.9269419003730458,0.45501526771765527,1.1738712287010824,1.1129262869721792,0.5761168436949101,1.508993929206884,0.7263617661350851,0.7732150441261753,1.1018859219435329,4.178620787830864,2.769159296902855,6.532286698804807,3.0429129888340185,2.0611561893019545,2.7233782861422258,0.2074270118125576,0.476570478029197,1.305457421944721,-1.0722002035362257,-0.6027338326792684,0.945380246495358,2.2954687554289035,1.6898475657199936,2.5611402416649205,6.507781727384,3.1874954129587727,8.83650201585868,-4763.61050111168,-2361.2694238778486,-976125.0241773062,0
2.54382292531036,1.692336674898016,3.5390495331888974,1.1378475493138664,0.6277415756975261,1.4959957252731573,1.4005235038643493,0.7946847409372447,1.8984848172287632,0.1596638389027008,0.20396428976624986,0.01501153596985584,6.590055379334654,3.9673623218771223,10.007990389265448,3.0429129888340185,2.0611561893019545,2.7233782861422258,0.5803994277046975,0.7678348152428436,0.7233537386001316,-0.3202972652404972,0.5552059594945189,0.4175179703431291,2.5438229253103617,1.692336674898016,3.539049533188898,8.432501160211038,3.495527258683369,16.129116199612692,-4763.61050111168,-2361.2694238778486,-976125.0241773062,0
3.8383583030456294,3.012919058487079,4.021052528377608,1.5228569233512588,1.0432945429356957,1.7660565566463768,1.877410901413364,1.313368508073421,2.3416934833754666,1.1982155558727643,1.0135456025669929,0.33912415777087634,8.933467450445601,5.906304977729208,10.762786965083954,3.0429129888340185,2.0611561893019545,2.7233782861422258,0.7832261955641988,0.5612583161680746,0.8758531007870874,0.3414544871612968,-0.4151409645083479,1.0591386466102461,3.8383583030456294,3.012919058487079,4.021052528377608,18.257666155305056,10.802618090993668,21.652391806055082,-4763.61050111168,-2361.2694238778486,-976125.0241773062,0
5.297282873464724,3.9862717594867836,4.549496595196181,2.3648614535219945,1.6892964969417903,1.757289993884066,2.91964002776626,2.1005673911700473,2.215205754927484,0.3301067047203516,0.3728349176215544,0.306295760047659,12.43596586527759,10.637566300260044,11.385082436963584,3.0429129888340185,2.0611561893019545,2.7233782861422258,0.6283085357070133,0.6224181559769896,0.5760737533380275,-0.32308991013809063,0.3667584381660478,0.31281023955567333,5.297282873464723,3.9862717594867836,4.549496595196182,36.58550373323763,20.3027459053288,25.605055806365492,-4763.61050111168,-2361.2694238778486,-976125.0241773062,0
22.45001651250093,34.9795006032302,3.659900773279423,17.746251580437363,31.60101618192569,1.4746850724904874,21.934599017337046,60.35955317448452,1.9122299751767693,1.4437918192280867,3.6562845490120806,0.8281058894460422,77.09712324226756,276.11485621657704,8.048154824520722,3.0429129888340185,2.0611561893019545,2.7233782861422258,1.158737035244987,3.504278488436538,0.8122889829444901,0.1928075626457333,11.170161151484699,-0.008224021596872522,22.45001651250093,34.9795006032302,3.659900773279424,985.1298754629274,4866.841121874806,17.051497148215873,-4763.61050111168,-2361.2694238778486,-976125.0241773062,0
7.021847411619348,4.447715097523974,37.03166673782655,4.766229907883216,3.5703166816415686,61.14588516824789,26.47044183224462,18.456604362200874,639.8577575810086,0.1068481577815342,0.09680179010143948,0.24014238586281472,542.8804031793002,369.6795508805999,13397.407575999994,3.290895135253189,1.992949116800137,4.3133597267706385,19.10525357969974,17.99967701599644,20.831564469804807,381.66238967292986,348.7944526794731,431.97021653892665,7.021847411619353,4.44771509752398,37.03166673782657,749.9906318663113,360.42841417155495,410789.2942779784,-2138.875578172842,-911.6049161799065,-2206937.61671968,0
3.121406159797119,1.2658883094082942,3.1169610561040644,1.3048507219903216,0.5405752638347876,1.3413648717963598,1.604431287272987,0.6761898609995217,1.699977012008424,0.18653386654753648,0.02255165581142323,0.028004007075785226,9.405793871945846,3.5345740880818637,8.192796410186775,3.290895135253189,1.992949116800137,4.3133597267706385,0.6076923411880043,0.5924353205573668,0.7060105123759205,0.43000788391086386,0.08655582460935429,0.3749006434623747,3.1214061597971203,1.2658883094082949,3.1169610561040644,12.317376169999859,2.0597059400151436,12.60536806662646,-2138.875578172842,-911.6049161799065,-2206937.61671968,0
4.011307703617066,2.230756984307398,5.417138282726114,1.5500036638892083,1.0499271098500234,2.415617697391648,1.9964132001999737,1.3582027112351902,3.075977181424736,0.1068481577815342,0.09602338000377597,0.3965959281963518,12.41124906604367,7.206964494108452,18.865233169408416,3.290895135253189,1.992949116800137,4.3133597267706385,0.7962530155107154,1.0421322388179481,0.9187797717616287,1.0891376165988316,1.1561270580515552,1.1278588818003232,4.011307703617065,2.2307569843073978,5.417138282726117,20.076255159030314,6.820991327842858,38.80702279482252,-2138.875578172842,-911.6049161799065,-2206937.61671968,0
5.445974350040956,2.961174187788928,6.574032934501638,2.2767935251556675,1.499229783594504,3.1079312313081653,3.0185895150107434,1.9796395023381868,3.9962371911761596,0.8095216632736404,0.16975424396455216,0.5475362968508055,15.335175173236491,10.509311890559347,17.97378821150421,3.290895135253189,1.992949116800137,4.3133597267706385,1.1049096753355139,1.225019303019277,1.042681246618761,1.2935231019647455,3.2110246611245836,0.7913247235565191,5.445974350040956,2.961174187788928,6.5740329345016395,38.77051928143682,12.6875251296452,59.18782071205176,-2138.875578172842,-911.6049161799065,-2206937.61671968,0
5.27483864301627,3.651589947288461,8.306485949697183,2.7464832630520366,1.5226752701785373,1.874382741257161,3.115988164417922,1.9589977360287707,2.5032970830161307,0.42902443368540105,0.43520104350029937,0.3120472728347748,11.628324979670394,8.984852192273104,11.871038674352892,3.290895135253189,1.992949116800137,4.3133597267706385,0.07174020571700918,0.7604602811462506,-1.1995010217919118,-1.0645713819071043,0.5486947927146706,2.3254129272518282,5.2748386430162695,3.651589947288461,8.306485949697182,37.5333049506503,17.17178127290399,75.2642051183538,-2138.875578172842,-911.6049161799065,-2206937.61671968,0
7.627457499971415,4.340824064606701,7.3092985658924094,3.520814489129984,2.32958313497401,3.9062346567815838,4.635369076379267,3.1299663225767316,4.849535833488668,1.3009216725359642,0.22569192200179392,0.24014238586281472,34.23803139360496,16.831065282717645,25.18428597459105,3.290895135253189,1.992949116800137,4.3133597267706385,1.6950041541315681,1.453755439139151,0.963694568718857,6.537661066587914,2.0776568939604747,0.6531858941895927,7.627457499971416,4.340824064606702,7.309298565892409,79.66475438812338,28.639442740333156,76.94384332564746,-2138.875578172842,-911.6049161799065,-2206937.61671968,0
40.393871611623794,49.36395473106878,3.266492391209554,36.14776373348103,20.429253924023833,0.883337244477804,37.04220935324304,21.038674870817125,1.1743257591157328,4.999004333214945,21.843244673493093,1.9603279938721092,86.54846696919418,69.58298803905704,5.452780519119786,3.290895135253189,1.992949116800137,4.3133597267706385,0.3853449677567088,-0.37690200171301,0.9924017308297256,-1.8183803656934328,-1.7902484180583549,-0.2822215130792838,40.393871611623794,49.36395473106878,3.266492391209554,3003.7901375458327,2879.4258670109602,12.049013530352653,-2138.875578172842,-911.6049161799065,-2206937.61671968,0
3.871047622299908,3.8728106616672644,27.851048087749586,2.495158212129074,3.4911047092451892,49.64394759510208,7.297664671840213,10.42390522844477,385.34820407777744,0.3606064221372799,0.21332670882248597,0.10725227423994253,88.6207275991,126.51878963924689,5985.124759500001,2.254412269471236,1.365659133387252,2.0355527546105625,8.899605656835,8.975936729975558,15.394432523922793,90.36925440117317,91.97180435139026,234.99380477544847,3.871047622299908,3.872810661667265,27.85104808774959,68.24091935673852,123.65646263272181,149268.91926555455,-223.4180216287104,-637.1584812365932,-918969.7520605368,0
2.038102125067661,1.4282039414284458,2.703647303636032,0.9176284091197824,0.5099131662826066,1.027565290638164,1.1153398095047333,0.6376910483261297,1.1857736397507057,0.2713009045197151,0.09910107133141666,0.7002693661393439,4.554549324765617,3.051664227080768,5.212821875770675,2.254412269471236,1.365659133387252,2.0355527546105625,0.4967996631477277,0.3862807739927329,0.19383399051877798,-0.5473826106406423,-0.21000621635301808,-0.9435832436622276,2.03810212506766,1.4282039414284453,2.7036473036360333,5.397843162871369,2.4464163714270244,8.71576786718603,-223.4180216287104,-637.1584812365932,-918969.7520605368,0
2.2328005535278637,1.3381403179654905,2.6772436572129603,0.9507670706418884,0.4985412644104835,1.0427679282001145,1.212002223985535,0.6326911743197081,1.2812172231914256,0.3272390317999908,0.09910107133141666,0.1759042687955402,6.298233411416368,2.8452674751574154,6.649368700400976,2.254412269471236,1.365659133387252,2.0355527546105625,0.8796095482080081,0.3433935833234019,0.5076040525464429,0.650694101805513,-0.5341011594557443,-0.02659664634163672,2.232800553527863,1.3381403179654898,2.6772436572129603,6.454347702780216,2.1909176326268343,8.809151173089372,-223.4180216287104,-637.1584812365932,-918969.7520605368,0
2.163546894820999,1.534906536198982,3.0026005308201538,0.844804666524957,0.5109977304796602,1.0490877835328059,1.033761157265538,0.6177188556157025,1.3798468561452353,0.47326533201207077,0.21332670882248597,0.5651429213627693,4.448056742169894,2.909496300959034,6.894142010179083,2.254412269471236,1.365659133387252,2.0355527546105625,0.33591117314161223,-0.007014250460939414,0.8046579631566695,-0.6803762685291876,-0.6681129543512805,0.4951436952864201,2.163546894820999,1.534906536198982,3.002600530820154,5.749597296360568,2.7375146594495305,10.919587294095361,-223.4180216287104,-637.1584812365932,-918969.7520605368,0
3.48269197419048,2.0705081356543134,3.7157685634360176,1.4117992188975492,0.7689667068179794,1.6826135238425097,1.7184508759233241,0.9458466632586416,2.0652195019483495,0.3606064221372799,0.4275146211457798,0.25409666042988854,8.186759753081454,5.050648236903093,8.882280976109985,2.254412269471236,1.365659133387252,2.0355527546105625,0.43690722959805334,0.6692005518998179,0.5634611725855624,-0.38870869476225156,-0.022327267568071907,-0.43234612668188976,3.482691974190481,2.0705081356543134,3.715768563436016,15.082216800052423,5.181629850208206,18.072067608247146,-223.4180216287104,-637.1584812365932,-918969.7520605368,0
3.6336590094933343,7.0071858089251124,1.504258571706899,2.0866628322688965,4.248177973335733,0.6554893463594226,3.355928021932943,6.048181326639032,0.7952455643939991,0.39034309739707523,1.2221867735706948,0.10725227423994253,19.59424311408469,28.18631899821573,3.4790224974794604,2.254412269471236,1.365659133387252,2.0355527546105625,2.8658033946798405,1.973435178848874,0.4542250793575956,10.082611154282715,3.5104192011785402,-0.37308153162179636,3.6336590094933334,7.0071858089251124,1.504258571706899,24.465730685666827,85.68115032070655,2.895209358242011,-223.4180216287104,-637.1584812365932,-918969.7520605368,0
31.84544417349801,67.25338127627262,2.5155460439802484,15.087593464357887,37.67182634254507,0.6518816692223562,17.942718660372424,41.65064173153658,0.7739083012931774,16.015997096069633,16.738808776503824,1.4488010916609249,62.020631102213784,126.51878963924689,3.5867809683738714,2.254412269471236,1.365659133387252,2.0355527546105625,0.9633941703257443,0.23567266829722758,0.007901580117342707,-0.8176197368901161,-1.3971279274947312,-1.1755680013956162,31.84544417349801,67.25338127627262,2.5155460439802484,1336.073467532655,6257.7932497405145,6.926905958195169,-223.4180216287104,-637.1584812365932,-918969.7520605368,0
6.969527125031567,9.460672843055686,40.13439856753118,6.871845443277957,10.908783245551614,71.84709393441031,37.728249239704866,41.41313445769522,564.5934028888147,0.4097842097436778,0.3034613987004858,0.2619104663617631,582.6637886359999,548.0611577134,8877.3269525,2.3183966208312885,2.1549035950318878,2.637638672307,14.532719310250966,10.58935135820518,15.588097289677169,217.5995631208606,123.87432221193262,240.9939164644165,6.969527125031565,9.460672843055681,40.13439856753119,1471.9950990398418,1804.5520362544744,320376.48053394875,-3673.971702346877,-5963.817226737127,-1403971.3586014558,0
2.2225525801463637,1.377851375314178,3.100773855939564,0.9940452201701087,0.5883940746796681,1.2655801879897972,1.277344342670921,0.7525882258349107,1.6073642933656287,0.08769458622819469,0.05202271619518221,0.4360971535322859,8.309729982519718,4.253350900755827,9.33013362149756,2.3183966208312885,2.1549035950318878,2.637638672307,1.0799654689976543,0.897098150881365,0.8351915112016481,2.1388510123878692,1.0078002395837027,1.0109407218744781,2.2225525801463646,1.3778513753141781,3.1007738559395635,6.571348541268669,2.46486345012051,12.198418477265097,-3673.971702346877,-5963.817226737127,-1403971.3586014558,0
2.3461801462671303,1.5221703440054084,3.14177280713468,1.0862851824659903,0.6264844186134787,1.3792444735772698,1.3810593993148155,0.79612043833052,1.7207676880338807,0.08769458622819469,0.05202271619518221,0.4360971535322859,8.309729982519718,4.253350900755827,9.33013362149756,2.3183966208312885,2.1549035950318878,2.637638672307,1.043341107362863,0.7734333037618937,0.8797321572750869,1.8013067038132995,0.6037836120594342,0.9143459468556503,2.3461801462671326,1.5221703440054086,3.1417728071346787,7.411886343173861,2.950810308497124,12.831777807832387,-3673.971702346877,-5963.817226737127,-1403971.3586014558,0
2.9741830929016775,2.1132368811573725,3.7592854790021755,1.4175522373080622,0.8025743651862557,1.7503755255605888,1.7060125776104755,0.9998086664474057,2.0734548722225092,0.38413382959132214,0.3034613987004858,0.32823367836537115,7.319540544876208,4.324710489578602,9.362303262035283,2.3183966208312885,2.1549035950318878,2.637638672307,0.4910055382335731,0.2919641290385023,0.4043509235672288,-0.5941993134682901,-0.6428655303699919,-0.4729442982209964,2.9741830929016775,2.113236881157373,3.7592854790021746,11.756243985067332,5.4653874853870805,18.431442419779874,-3673.971702346877,-5963.817226737127,-1403971.3586014558,0
3.230160786252704,2.9518708994817993,4.64849886979795,1.2719832951734997,0.8826995404118586,1.9194675514129838,1.5901040549146133,1.113259531350462,2.3111487029877686,0.6447307499647831,0.4249650616369473,0.5616593110661469,7.764469617703935,6.012836993809779,10.054112248270172,2.3183966208312885,2.1549035950318878,2.637638672307,0.7654492594602347,0.1396012251173613,0.5142850788371472,0.12575856363797433,-0.011687584914942928,-0.5766046485076659,3.230160786252703,2.9518708994817984,4.648498869797949,12.962369610500577,9.952888591350131,26.94995006983486,-3673.971702346877,-5963.817226737127,-1403971.3586014558,0
3.4848031869095184,4.812428161712741,3.5485882937162647,1.481874832451115,2.4976190633404736,1.6964965076294576,1.789616872275659,3.3048536415081653,2.074969728547286,0.4097842097436778,0.38235950802350993,0.2619104663617631,8.194888494628268,16.984131923505224,8.817064765765261,2.3183966208312885,2.1549035950318878,2.637638672307,0.6149560858819548,1.535060077809082,0.7411901300259409,-0.3061132793255146,2.4209667342203787,-0.1392388954797581,3.484803186909516,4.812428161712741,3.548588293716264,15.346581801028433,34.08152240343565,16.897978252687704,-3673.971702346877,-5963.817226737127,-1403971.3586014558,0
20.670456195964906,52.25303038795509,4.671644900756444,17.328191019992538,46.65306913450499,3.5735835225314525,25.505503108990165,70.60824296061664,5.232732291646166,1.3504887654897972,10.392585306130915,0.6532794553143121,107.59163253428243,299.31692311040126,22.299258683614028,2.3183966208312885,2.1549035950318878,2.637638672307,2.28498081832397,2.510501234745026,2.310912508388463,4.839757971446259,5.6763651502086265,4.620654033499331,20.670456195964906,52.25303038795509,4.671644900756444,1077.798448192011,7715.903158710028,49.205753314800226,-3673.971702346877,-5963.817226737127,-1403971.3586014558,0
5.29098009484794,5.483155994377462,34.11469580474559,3.8995425907000745,6.395801101826581,61.470257085502794,13.84405267994044,23.16456650243852,413.5089314060985,0.06352506324232238,0.054475521432056986,0.1940731123750631,169.2208408652,255.29182493170003,5566.4378335,2.5583518599995902,1.371926236061862,2.215967877694856,10.11508937500846,8.993881077430386,13.303984955216295,110.99032946181762,85.72391783321628,174.99924092815587,5.290980094847942,5.483155994377465,34.11469580474558,219.65226496904322,566.6621409045745,172153.44882246383,-582.9476762486017,-1913.3951354931385,-845583.1619910473,0
2.143179173957419,1.044147322487681,2.6404472979955687,1.2160221098132311,0.4322361162470597,0.9064782131352268,1.4600660939199805,0.517428197675388,1.1408837803957832,0.1491510756435833,0.1392219687863929,0.4996235636407561,5.865810641384677,2.2085099689276237,4.940584094591269,2.5583518599995902,1.371926236061862,2.215967877694856,0.7219309621270589,0.3180801281466327,-0.1229467580008601,-0.3744819410303366,-0.6717586899090695,-0.6434836472942562,2.143179173957419,1.0441473224876807,2.6404472979955687,6.725009970299554,1.357975570807793,8.273577733862274,-582.9476762486017,-1913.3951354931385,-845583.1619910473,0
2.1117082681496737,1.2300824460585231,2.8410421159937562,0.7843644765850578,0.5597245006497195,1.1514068161297677,1.0363753334902888,0.6817911149013229,1.4874204577597647,0.11021433559999139,0.11802665245899666,0.4153271594033071,5.7702788832273635,3.0616908846127524,6.931671117152571,2.5583518599995902,1.371926236061862,2.215967877694856,0.707425575439387,0.38560788651990857,0.7962351852358543,1.4542847050747802,-0.2594863104681804,0.47897261693347026,2.1117082681496724,1.230082446058523,2.841042115993755,5.533385641638795,1.977941948459708,10.283939923012534,-582.9476762486017,-1913.3951354931385,-845583.1619910473,0
2.2843589194987124,1.1350407246001215,2.817263106405833,1.021258800425199,0.5043478509013722,1.0364128666090437,1.298800463713448,0.6237628315744138,1.3769306844090379,0.1491510756435833,0.1392219687863929,0.4996235636407561,5.865810641384677,2.8913419552453736,6.588633241490575,2.5583518599995902,1.371926236061862,2.215967877694856,0.5843157752463792,0.6468685807446591,0.7395677027582241,-0.0363553865728421,-0.05428752597046982,0.6177895785435568,2.2843589194987124,1.1350407246001215,2.8172631064058327,6.905178317635593,1.6773975165544994,9.832909520382586,-582.9476762486017,-1913.3951354931385,-845583.1619910473,0
2.6191100867159602,1.3001806223651857,2.93610624207905,1.2294121542489933,0.5632885981856521,1.19147646460382,1.525995148248446,0.6990338714833851,1.515577615293804,0.34816387559806455,0.054475521432056986,0.1940731123750631,7.1013772892620475,3.344831130259653,8.088823564533149,2.5583518599995902,1.371926236061862,2.215967877694856,0.9200421848762703,0.7860276096610033,0.5079267299719163,0.3002242939930402,0.25302182097588233,0.5268515845043193,2.6191100867159607,1.3001806223651857,2.936106242079049,9.188398838815083,2.179118004254971,10.917695372755212,-582.9476762486017,-1913.3951354931385,-845583.1619910473,0
3.9072010884495705,2.306320379598996,3.6688723034163493,1.6936452920690441,1.1915205346434403,1.6372412077811673,2.0232812451692688,1.4517063749491605,1.9138799246234959,0.06352506324232238,0.17823015230936864,0.5585602079515832,8.892167131540443,6.424823566568686,8.768445337019283,2.5583518599995902,1.371926236061862,2.215967877694856,0.2609289228960383,0.7592941811695583,0.378766469370995,-0.6474009500145166,0.09702829099293142,-0.527867506990666,3.90720108844957,2.306320379598996,3.6688723034163493,19.35988734263521,7.4265650924216935,17.12356034465243,-582.9476762486017,-1913.3951354931385,-845583.1619910473,0
10.462401477725713,17.128512563932937,2.7414142504903793,7.80779054961576,16.583190004043832,1.3410021517779318,14.613001907217358,32.31741898570833,1.6313313341092752,1.783958978719482,2.023038770231917,0.8002467806980003,80.13682578144454,167.25385449937488,7.493060817715328,2.5583518599995902,1.371926236061862,2.215967877694856,3.9907230272236744,3.8580656054827256,1.1190358972602252,16.183692119240344,14.549549018550984,0.6155930513537258,10.462401477725713,17.128512563932937,2.741414250490379,323.00166942145523,1337.8015125506297,10.176594014438475,-582.9476762486017,-1913.3951354931385,-845583.1619910473,0
8.090634983188377,14.316107169913119,61.13745539318826,6.868701673660407,17.09325258882089,112.53083293449642,16.48249202906987,53.99093135315443,875.2977941869165,0.24620767395640358,0.44512112671508597,0.11258129786959153,131.52115206601806,701.7052620892,13621.102824,2.4956099121901545,2.349690721581533,3.1872341489851443,5.333412421182035,9.777365788605847,15.427074816141886,29.95115055971427,111.8724895154948,235.9978393990339,8.090634983188375,14.316107169913124,61.13745539318823,337.1309179195434,3119.971592881473,769884.0169604361,-792.3317669726902,-6852.831270676736,-2243302.833757185,0
2.5221477737361586,1.9967676726605799,4.146594400013949,1.1881030586407226,0.9484621785243851,2.1018732441205334,1.5016069883382521,1.1956517633857908,2.9065798186437273,0.16522499266291493,0.1779494936958505,0.21442153840281286,9.079873076754192,7.180327246020927,20.273427718477286,2.4956099121901545,2.349690721581533,3.1872341489851443,1.026748974512632,1.004425413068667,1.878856420030825,1.257852375029806,1.0990298676391728,5.42690577239885,2.5221477737361586,1.996767672660581,4.146594400013949,8.616052939988538,5.416664277869904,25.642451360374054,-792.3317669726902,-6852.831270676736,-2243302.833757185,0
1.9015643897147816,1.5078642251336567,3.1863526643717335,0.7301376850087161,0.6404970179775153,1.383162416783737,0.9165457435097961,0.8018257853894435,1.764095994527953,0.394375162164726,0.16518595705656708,0.29387003074766255,4.736303614449584,4.772678832099822,10.04437264455244,2.4956099121901545,2.349690721581533,3.1872341489851443,0.6431765032116671,0.8601506382465643,0.8739048014507786,0.03808019821023878,0.9724515601453119,0.9595367345748524,1.9015643897147805,1.5078642251336567,3.1863526643717357,4.45600322817727,2.916579111553321,13.264877979658426,-792.3317669726902,-6852.831270676736,-2243302.833757185,0
1.8171149063902716,1.6993181588745583,3.539235866620919,0.7478073460681625,0.7781078763108175,1.6851081544566449,0.9342709321349976,1.0412967256117724,2.2430076821570606,0.18470226657770022,0.16518595705656708,0.29387003074766255,4.8213576915404,7.180327246020927,15.081916640265897,2.4956099121901545,2.349690721581533,3.1872341489851443,0.6786189828419396,1.421825955810928,1.4192597595898169,0.026466135828040915,3.5631096542549736,3.3007620080690723,1.8171149063902718,1.6993181588745596,3.5392358666209183,4.174768757658123,3.9719810758506213,17.55727398179151,-792.3317669726902,-6852.831270676736,-2243302.833757185,0
3.2558419798298215,2.3214979599595855,4.667996386737795,1.5083982406251777,1.1095029785063943,2.3178582787228637,1.9239879527019124,1.3484598330355964,3.086749028102903,0.16522499266291493,0.1779494936958505,0.21442153840281286,10.45850287552958,6.315989497999897,20.273427718477286,2.4956099121901545,2.349690721581533,3.1872341489851443,0.9891374794439324,0.6837533858564842,1.467873367402826,1.0580579725377222,-0.25300690733926645,3.1426930181969785,3.2558419798298224,2.321497959959584,4.667996386737796,14.302236639764272,7.207696699406901,31.318209829091337,-792.3317669726902,-6852.831270676736,-2243302.833757185,0
5.678954174155793,8.159516888639331,4.120558668643696,3.3099256341126817,6.243070289464654,2.3680774433857117,5.226818994991318,8.619101668105055,2.9773632650930804,0.24620767395640358,0.44512112671508597,0.11258129786959153,33.13566854223429,48.628961775316064,14.656622375631063,2.4956099121901545,2.349690721581533,3.1872341489851443,2.856891415155709,2.123156763468585,1.0406777523628767,10.142415021157257,4.6849042083293515,0.5874412481222318,5.678954174155791,8.159516888639335,4.120558668643697,59.57015731856355,140.86662942112184,25.843695754060445,-792.3317669726902,-6852.831270676736,-2243302.833757185,0
72.72836389163483,136.2784559988226,4.230866619386178,37.70206346819711,69.89423555869253,3.172756576614607,42.7875820530056,87.63563968363393,4.4017290320975135,7.2110457237718855,24.00915187526476,1.0275714228441832,131.52115206601806,326.26340841513814,15.69717125250349,2.4956099121901545,2.349690721581533,3.1872341489851443,-0.3196122872681921,0.7571599779074426,1.8300751412281915,-1.3365462260319152,-0.024293974667467744,2.2127369712229292,72.72836389163483,136.2784559988226,4.230866619386178,7120.192092296737,26251.82291218275,37.27545082304635,-792.3317669726902,-6852.831270676736,-2243302.833757185,0
3.9991188069484154,6.009450804572297,29.406149195400445,3.054570279845781,6.779458861611532,52.24285878718825,9.439698615466908,18.514587373420866,342.5892000716726,0.3338241703891723,0.13934217925806497,0.4723535905426883,113.95947290939998,202.18672480095088,4496.1705755,1.9365256998852831,1.6730890468667339,2.2385176734503958,9.672953007742434,8.04432049041141,12.961248175048723,106.05805173913954,75.39520013366018,165.99797591687627,3.9991188069484127,6.009450804572294,29.40614919540046,105.10086118293634,378.90344458061,118232.08161625073,-289.47769446979714,-2062.7805455253542,-668466.593342182,0
1.884905237162742,1.3357374524617678,2.621710438117807,0.8750640545506394,0.46374770936328336,1.1184961554673205,1.0589053195734408,0.5717578446657995,1.3476070794884276,0.24539991468041925,0.24671564129150536,0.7559562223799751,4.199208988977568,2.6600344660006376,6.11310298229597,1.9365256998852831,1.6730890468667339,2.2385176734503958,0.41805662512952935,0.22600800586353026,0.8256314663670781,-0.6589319228774424,-0.32969455806586456,0.10473629854216737,1.8849052371627417,1.335737452461768,2.621710438117807,4.674148228904463,2.111101574845934,8.689410462023194,-289.47769446979714,-2062.7805455253542,-668466.593342182,0
2.3583021908653476,1.1977282696685427,2.5974890340546364,0.9053549487697555,0.5096520765951564,1.057756939509152,1.1344030861638168,0.6262651556484182,1.2518560953360285,0.24539991468041925,0.07732518479861826,0.24340159851428983,5.6598272885838,2.8658223137330165,6.11310298229597,1.9365256998852831,1.6730890468667339,2.2385176734503958,0.3790917059249118,0.32970550625922823,0.45257174540948814,0.0708016768509463,-0.219229503332512,-0.3520153056132682,2.3583021908653485,1.1977282696685427,2.5974890340546355,6.848459585338295,1.8267610531425393,8.314092965464054,-289.47769446979714,-2062.7805455253542,-668466.593342182,0
2.171230986470923,1.4990613586043098,2.9569782614631506,0.9047498922945026,0.5228906529997159,1.4150635482130167,1.1576420074809188,0.7043508935871371,1.6785739670298516,0.3338241703891723,0.13934217925806497,0.4723535905426883,5.713393353744229,3.916983746974681,7.220276254282097,1.9365256998852831,1.6730890468667339,2.2385176734503958,0.8746610376606322,0.552143371040761,0.5631397425877405,0.5241012704275612,1.1526088605262936,-0.4375714460930906,2.171230986470923,1.4990613586043102,2.9569782614631506,6.0543790140959475,2.7432951381575985,11.561331001555972,-289.47769446979714,-2062.7805455253542,-668466.593342182,0
2.4617351171472066,2.0180643779747722,3.223837158585626,1.1572741565854787,0.7007699827097276,1.2837614462185376,1.4062392543826872,0.8140989084372394,1.616978489120103,0.34077165598768205,0.32826219085876257,0.5531397351870261,6.87065909214882,3.483444464113904,7.607191010517269,1.9365256998852831,1.6730890468667339,2.2385176734503958,0.99492419469894,-0.09560500294483235,0.5410958088149928,0.730133565875418,-0.96345584685792,0.03873198313687887,2.4617351171472066,2.0180643779747727,3.223837158585627,8.037648627562548,4.735340866369409,13.007745459354577,-289.47769446979714,-2062.7805455253542,-668466.593342182,0
5.088468470260438,9.784665693346618,3.2750634036316413,3.2021993344184083,6.841183818822428,1.3008688762859406,4.926245844001363,10.160983099917802,1.5939380216149799,0.6809828006834375,0.6809730112127212,0.784298395867542,24.217552642771782,51.76967693766334,6.663566143760936,1.9365256998852831,1.6730890468667339,2.2385176734503958,2.338903059347324,2.3210276180801053,0.42350402688323263,5.127656822950177,5.503488862766853,-0.6930142484016848,5.088468470260438,9.784665693346616,3.275063403631641,50.16040948837532,198.98526028736939,13.266678714557148,-289.47769446979714,-2062.7805455253542,-668466.593342182,0
28.049440707692597,134.1095774885961,6.1631565710454455,11.271757920166158,68.07714731235478,2.8578320526286456,11.271757920166158,68.07714731235478,2.857832052628646,16.77768278752644,66.03243017624132,3.3053245184167994,39.321198627858756,202.18672480095088,9.020988623674091,1.9365256998852831,1.6730890468667339,2.2385176734503958,4.76306466658365e-16,0.0,-2.2831863462866205e-16,-1.9999999999999998,-2.0,-2.0,28.049440707692597,134.1095774885961,6.1631565710454455,913.8236506251912,22619.876760357816,46.15170296025231,-289.47769446979714,-2062.7805455253542,-668466.593342182,0
6.851359854979678,8.508457485969425,32.227079912878075,5.26978542622289,8.489860042449747,55.58671002138119,23.502024743920423,32.710181492879265,433.2650864465661,0.32530343172742915,0.30518242755285724,0.4711305165352382,336.31050118459996,444.84249908,6758.2189925,3.429035381639024,2.940829121681449,2.922543161156235,12.310063312985434,10.857274862873135,15.459126558996322,162.12808295409184,132.70503250053454,236.9911647957342,6.851359854979686,8.508457485969426,32.22707991287807,599.2862989262751,1142.34982208765,188757.2198132614,-2040.9199932485078,-4566.701159340859,-1043916.2204953766,0
2.3052013564378866,1.4029821831669975,3.3265891366519345,1.1015369244260755,0.5623708187466285,1.4882582936691737,1.4113111594864345,0.7333342868615508,1.79852469417841,0.12479518683697702,0.14509569220452487,0.35788782786095213,8.427770783079522,4.341905692764359,9.305268519161109,3.429035381639024,2.940829121681449,2.922543161156235,1.1013904952790474,1.0261849290169047,0.47652361679897404,1.7684230950630369,1.5284979124505886,-0.0998400329716036,2.305201356437886,1.4029821831669975,3.3265891366519353,7.305752482614013,2.5061381825707745,14.300886359660213,-2040.9199932485078,-4566.701159340859,-1043916.2204953766,0
2.6289828680016023,1.8269553887316041,3.424108151984163,1.2013770531191652,0.7765019886875517,1.532457167020938,1.467812029849099,0.94998032595145,1.8752495136233183,0.12479518683697702,0.20005883534717964,0.35788782786095213,8.427770783079522,4.408227767233259,9.305268519161109,3.429035381639024,2.940829121681449,2.922543161156235,0.8971265207932125,0.5851745844676076,0.563176513318637,1.3898387401880674,-0.03566191127057472,0.09224000362739382,2.6289828680016027,1.8269553887316041,3.424108151984164,9.066023075215663,4.240228612110269,15.241077374828897,-2040.9199932485078,-4566.701159340859,-1043916.2204953766,0
3.32090630246899,2.8629120491862086,4.344771437924847,1.438619987673289,0.8968194780938268,1.7654193340068824,1.774602558651723,1.0714247034880617,2.2100443969355843,0.32530343172742915,0.30518242755285724,0.8514165715906715,8.514927317637659,5.5906317883411445,9.950088095814692,3.429035381639024,2.940829121681449,2.922543161156235,0.4578241983369932,0.104734371278213,0.4921416136184899,-0.2501140273365636,-0.49497756598058373,-0.24304990484594757,3.3209063024689893,2.8629120491862077,4.344771437924849,14.177632910951504,9.344216296620054,23.761335084233938,-2040.9199932485078,-4566.701159340859,-1043916.2204953766,0
4.810711447918117,3.693136985985846,5.307318179605614,1.9072377659151083,1.3678808020061946,2.208619990920637,2.299661817039107,1.586544928339329,2.52109435042601,0.8705334937350663,0.8049836561691018,0.5860515632208301,10.772689937052172,7.486208237612684,10.849192980114328,3.429035381639024,2.940829121681449,2.922543161156235,0.3134928617925731,0.15541422880505776,0.11810689761161497,-0.28581102624742005,-0.7376688973059466,-0.830882784416497,4.810711447918117,3.693136985985845,5.3073181796056135,28.43138910787803,16.156385606895856,34.523542983322194,-2040.9199932485078,-4566.701159340859,-1043916.2204953766,0
5.444947691185928,6.005928338359868,3.9583162871807813,2.3668541982687157,2.367900184769063,1.6279125326053039,3.091948123559427,3.570248814873822,2.069337626225476,0.4393233885480738,1.2421348036827151,0.4711305165352382,16.990645490979944,24.484752250044696,9.898091224925185,3.429035381639024,2.940829121681449,2.922543161156235,1.0551322985111662,2.4644227353335095,0.754800960235594,1.7918200154757686,8.054581925393014,0.47400503588142673,5.444947691185928,6.005928338359869,3.958316287180781,39.20759855853363,48.817851805622055,19.95042604067313,-2040.9199932485078,-4566.701159340859,-1043916.2204953766,0
39.22331464900227,83.43203877797698,5.673706979062658,31.371818091386956,52.92166345399859,2.2060594505225146,45.9198204889893,57.647613261301025,2.9292653096060994,8.873954359327698,21.117397822774123,0.9633781188308138,149.02467796885662,173.42617090500374,10.858074663388264,3.429035381639024,2.940829121681449,2.922543161156235,1.8436314745160054,0.5483211731165177,0.0522214726411963,1.7380343231132933,-1.395698409617265,-0.48081871744106275,39.22331464900227,83.43203877797698,5.673706979062658,3647.098325795638,10284.152409374385,40.771546138326016,-2040.9199932485078,-4566.701159340859,-1043916.2204953766,0
3.9070168691453495,7.677433805475661,29.955832618679818,2.8197063568222203,9.74292389577445,53.189778278177656,9.432302840832177,41.22276728253202,412.8734408461353,0.03633336227713842,0.06314209274186532,0.16491084968675399,128.8397111358835,586.089477893,6412.7292259999995,1.8514561701458736,2.032994396495127,2.423430852535198,10.64777179664108,12.328603410715091,15.394246993871057,129.7021896036182,163.14877281246618,234.98999979353445,3.90701686914535,7.677433805475664,29.955832618679835,104.23311769695712,1758.259532267253,171361.8300640056,-445.9765224202776,-7183.144489978546,-982867.6988055392,0
1.7369410592578165,0.9927222167258342,2.293262121130427,0.6547087439247865,0.4504283745995158,1.0252233861400508,0.8068712944665062,0.5671235965269742,1.2562558901846388,0.17781627686537302,0.058509215997179745,0.32585536939226634,4.3669274339221635,2.644060751622377,5.966778584911048,1.8514561701458736,2.032994396495127,2.423430852535198,0.3355332155123729,0.7428711416581119,0.6989481885483395,-0.06898875450204889,0.12435997545146105,-0.11841845746880608,1.7369410592578174,0.992722216725834,2.293262121130427,3.6680055291697244,1.307126573318744,6.837230017835226,-445.9765224202776,-7183.144489978546,-982867.6988055392,0
1.6879658827017447,1.072325977758045,2.6357369585220702,0.6802124219993193,0.4366374070057888,0.9605623721791078,0.841634704732283,0.5430478008856168,1.1834467794528032,0.3868680477832527,0.058509215997179745,0.32493077346125543,4.3669274339221635,2.644060751622377,5.966778584911048,1.8514561701458736,2.032994396495127,2.423430852535198,0.6282488618401495,0.5723243019983811,0.42658400815567826,0.1097004509125945,0.22047622240389497,-0.10444954188271138,1.6879658827017443,1.0723259777580452,2.63573695852207,3.5575777973748766,1.4447839166214516,8.347655594316388,-445.9765224202776,-7183.144489978546,-982867.6988055392,0
2.0961093868216216,1.3440914812123548,2.8055844494158118,0.8769630868825329,0.5809960578520728,1.2929991326122987,1.058360784500309,0.6990622682506399,1.5709776262504662,0.23349607284174073,0.1102966689302038,0.3488000662248066,5.283148958857953,3.3128501599670668,6.870488483174678,1.8514561701458736,2.032994396495127,2.423430852535198,0.3559288761856971,0.3768651113016514,0.5931866595812594,-0.2113175780509997,-0.3547244591799399,-0.4343579313253172,2.0961093868216216,1.3440914812123548,2.8055844494158118,5.513802111689823,2.2952699647593517,10.339274804983368,-445.9765224202776,-7183.144489978546,-982867.6988055392,0
3.225964964869623,1.871984482181743,3.622721912198601,1.4376872207408586,0.8599366254570324,1.317023305555035,1.7670931114366852,1.020296601031654,1.7523530071325268,0.03633336227713842,0.3062990956672577,0.4824322030064704,7.61332494502685,4.404001972567805,9.685982054253483,1.8514561701458736,2.032994396495127,2.423430852535198,0.4642855399042092,0.42460099988106764,0.708342356900904,-0.41796489610362597,-0.7573896199177015,1.2989157988803983,3.2259649648696227,1.8719844821817426,3.6227219121986014,13.52946801905325,4.545331055605995,16.194855114730302,-445.9765224202776,-7183.144489978546,-982867.6988055392,0
3.929226314303233,9.741476572654243,3.1101542979295558,2.4029398714031447,7.510027030472394,1.4305528624487893,3.8531307481910235,11.012102612114619,1.7117154142326545,0.2786298784173562,1.3462695938568174,0.16491084968675399,28.958644065734184,56.814878466081225,7.413742414767678,1.8514561701458736,2.032994396495127,2.423430852535198,3.9664727379048124,2.33055060808295,0.4682387542748248,22.024417341476056,5.12397418062338,-0.5073645534581273,3.929226314303232,9.741476572654244,3.1101542979295553,30.285435991668088,216.16276975531304,12.603029416251353,-445.9765224202776,-7183.144489978546,-982867.6988055392,0
87.47102572167539,144.27933737550222,17.022325647015922,41.368685414208116,101.32854323137232,8.804927233158043,41.368685414208116,101.32854323137232,8.804927233158041,46.10234030746727,42.95079414412991,8.21739841385788,128.8397111358835,245.60788060687455,25.827252880173965,1.8514561701458736,2.032994396495127,2.423430852535198,0.0,0.0,2.49818232888152e-16,-2.0,-2.0,-2.0,87.47102572167539,144.27933737550222,17.022325647015922,9362.548473701712,31084.000866906084,367.28631401426424,-445.9765224202776,-7183.144489978546,-982867.6988055392,0
7.4022820236985165,7.31252359654124,39.95520928578592,6.008417028387836,8.455205154645158,70.97530181769217,18.246071045122825,27.9433247743924,549.7834243127207,0.19230689133166248,0.18615413684668142,0.12291263715261279,210.3592989146,357.850357314,8521.5037765,2.7312491200038727,1.6876266353417106,2.7811263948138705,7.870978502957162,9.665532346716963,15.361896818815985,71.96688985282834,107.84264249686242,233.99335966220727,7.402282023698515,7.312523596541244,39.95520928578595,387.7128877420397,834.3024007971447,303858.23239809216,-1200.788899953081,-2555.7748915296247,-1348076.916070571,0
2.3152394758186032,1.5598114082087808,3.2226608703875783,0.9105419737133583,0.6302341171028886,1.3090406944386084,1.1177422424006738,0.7824348539722461,1.6285607226044616,0.1489150093334404,0.016250409999997828,0.1804634456260271,5.694721476718786,4.18150512112412,9.615678588660863,2.7312491200038727,1.6876266353417106,2.7811263948138705,0.3173312777513578,0.4955238816544034,0.6984347204962563,-0.2592022588812304,-0.19524974263631378,0.7990867967424151,2.3152394758186023,1.5598114082087797,3.222660870387578,6.609681550835683,3.0452159298888266,13.037753112737185,-1200.788899953081,-2555.7748915296247,-1348076.916070571,0
2.2811952390918107,1.4993013596197287,3.3154186051643575,0.8778297901547601,0.5918071509848585,1.3797222886092149,1.1050182565999824,0.7525305065368736,1.7533982399730295,0.1489150093334404,0.17166545873279807,0.4691178977203911,5.694721476718786,4.18150512112412,9.615678588660863,2.7312491200038727,1.6876266353417106,2.7811263948138705,0.4810236990539137,0.8513454760228091,0.9327210144864498,0.21897693056623568,0.7779894534358225,1.168947293311187,2.2811952390918107,1.499301359619729,3.3154186051643575,6.424917066274408,2.814206730226211,14.066405915410488,-1200.788899953081,-2555.7748915296247,-1348076.916070571,0
2.9848002468304187,1.7256465590772876,3.5192739880974777,1.4083458313305492,0.7869063541537457,1.5218031957014617,1.8247286776558915,0.9889559377944382,1.8520288441942707,0.19230689133166248,0.11132557564929162,0.12291263715261279,8.602506866838517,4.354400253758768,7.80171205158172,2.7312491200038727,1.6876266353417106,2.7811263948138705,0.9186355903742185,0.6259139860088337,0.261442689775819,0.6509928571923487,-0.13305704036672017,-0.6145448953486765,2.9848002468304182,1.725646559077288,3.5192739880974764,12.238667260538742,3.955889893754161,15.815300243027083,-1200.788899953081,-2555.7748915296247,-1348076.916070571,0
3.7917931142111585,2.27370126415394,4.62822848776255,1.5407850716393239,0.8109132695441257,1.8713848337262124,1.9092878306741412,1.003243475781313,2.421727379436003,0.29944867651108537,0.19208228177064832,0.7403341244136121,8.730462732204707,4.662141826775957,12.70154929039854,2.7312491200038727,1.6876266353417106,2.7811263948138705,0.4876015899646932,0.26830281842857673,0.8863316723233325,-0.3311355984057034,-0.34178214003749163,1.0290167253494564,3.7917931142111594,2.27370126415394,4.62822848776255,18.023075041339524,6.176214910312993,27.285262435246814,-1200.788899953081,-2555.7748915296247,-1348076.916070571,0
4.798075811331589,2.885998739059963,5.056477677879522,1.8689344973060458,1.1807469990696389,2.3151896133643377,2.302889685494473,1.4943805815359783,2.928307498868733,0.6848553930909084,0.18615413684668142,0.8913185654015948,11.398641742740079,7.490206749616589,17.25825106734117,2.7312491200038727,1.6876266353417106,2.7811263948138705,0.49493261384431564,0.6179041940845006,1.1617982112376395,0.015435048922017636,0.30854881951175894,2.2538303376030013,4.798075811331589,2.8859987390599633,5.056477677879522,28.32483239484211,10.562162044327508,34.14295131482474,-1200.788899953081,-2555.7748915296247,-1348076.916070571,0
18.22567311142009,22.261453536451697,2.4330894306587108,18.00299173361383,22.19142856959683,1.230478816698339,27.6983403158504,35.331235749694784,1.8183591802416144,1.003567491338726,1.494363262362101,0.20357077973365958,116.47294585136329,175.13548602660697,10.844083418840114,2.7312491200038727,1.6876266353417106,2.7811263948138705,2.3934513519683334,2.8248414076759287,2.477294573544483,4.595327942556471,8.003958863383849,8.941105509992752,18.22567311142009,22.261453536451697,2.4330894306587103,1099.3732166170048,1743.8685331561087,9.226354285952084,-1200.788899953081,-2555.7748915296247,-1348076.916070571,0
6.403270556741457,3.446978919281169,36.76053558692514,6.759768748009773,3.9208272673985465,68.10122454910814,42.79214551157672,19.622923096500934,540.5431052458521,0.0987088290491954,0.09346015595999402,0.03213020293732325,678.8565072700001,303.29740943250005,8583.4642165,1.90220571226315,0.8432311036289739,1.671801415790944,15.46490383224473,14.329086174319396,15.747957499099595,239.95467194854962,214.47262789797873,246.0001253910441,6.403270556741459,3.446978919281165,36.760535586925165,1872.1695913067877,396.9407745211588,293538.1856054659,-4907.550594227898,-837.8930636683367,-1354203.8765341677,0
1.7284289006089641,0.8655216243930308,2.2710337150827935,0.7179585265343912,0.3629750227952889,0.9510736775761333,0.8812144086893136,0.4382204741855896,1.1557192400287786,0.18075878922107474,0.1113763474956653,0.3314856535152658,4.96573231262882,2.2132845823487703,5.6803734866037825,1.90220571226315,0.8432311036289739,1.671801415790944,0.5635782159464714,0.47093951035924014,0.5297389182820406,-0.0655115916707234,-0.35969658652020886,-0.3321085728765727,1.7284289006089641,0.8655216243930318,2.271033715082792,3.7640052985419685,0.9411648662873954,6.493281096815446,-4907.550594227898,-837.8930636683367,-1354203.8765341677,0
1.9649807150078535,0.8962548766434044,2.2444397656687274,0.8030666471849549,0.37322554526859364,0.982743715259057,0.9617218069935227,0.4444340861886685,1.2026150989977424,0.18075878922107474,0.1113763474956653,0.3314856535152658,4.96573231262882,1.9382560279905319,5.767038608794762,1.90220571226315,0.8432311036289739,1.671801415790944,0.1971536060473409,0.25449586929390844,0.6825471895315193,-0.4043189184216951,-0.7957064463685848,0.1366092836878523,1.9649807150078529,0.8962548766434042,2.2444397656687274,4.786058044399658,1.0007944608734407,6.483792938052439,-4907.550594227898,-837.8930636683367,-1354203.8765341677,0
2.1163654074441633,1.1398859202836436,2.4601290202635684,0.8407107413789052,0.42656304412616264,1.032031891852702,0.9826044704260356,0.5368663660133552,1.2463158346285454,0.5807070295654565,0.23624269894292532,0.03213020293732325,4.324591171654558,2.567734085913041,5.334535126580061,1.90220571226315,0.8432311036289739,1.671801415790944,0.4088561485195801,0.5998498522283601,0.2643601662692098,-0.7080043794668316,-0.11361770250883385,-0.27467834394600565,2.1163654074441633,1.1398859202836433,2.4601290202635684,5.44451408312753,1.5875654062172748,7.605537955988832,-4907.550594227898,-837.8930636683367,-1354203.8765341677,0
2.631667468769336,1.1148690663857257,3.213757719087509,1.102236477083579,0.451750675544151,1.3901077528940726,1.3864094468614119,0.6017644912455459,1.7217930019056147,0.23347661690901889,0.09346015595999402,0.2292463516229793,7.228751479442847,3.5817440718585685,7.975238374637801,1.90220571226315,0.8432311036289739,1.671801415790944,0.6296716694258966,1.1767710966543352,0.6885751148734992,0.34057511764490345,2.0241627562061355,0.12165358845493035,2.631667468769337,1.1148690663857255,3.213757719087509,8.847804820525374,1.6050535381077897,13.292809818405695,-4907.550594227898,-837.8930636683367,-1354203.8765341677,0
3.9867504264817932,2.1394042861664864,1.770779023781424,1.805755622800716,1.059186850534724,0.5976735320001122,2.566560048795982,1.4740629860974812,0.7591437083892564,0.0987088290491954,0.20646040883258204,0.2012038146660731,16.77454950398355,8.1629692038627,3.6118453081017554,1.90220571226315,0.8432311036289739,1.671801415790944,1.900932490662037,1.720122638053449,0.190723246364835,6.482184144858206,4.0152137654768865,-0.23891023189652305,3.9867504264817923,2.139404286166487,1.7707790237814247,22.481409447128378,6.749912386650157,3.711957521051285,-4907.550594227898,-837.8930636683367,-1354203.8765341677,0
23.11443878884896,22.77943977988824,2.677644330992418,9.929059072080557,11.970441010164942,1.2922903223810471,11.36486358479181,15.465942969795238,1.561307408442879,9.15045319906772,5.046363605946851,0.15031733756319526,41.64250905117372,51.32750479309328,5.117814139912519,1.90220571226315,0.8432311036289739,1.671801415790944,0.27156216541770917,0.8733529680323541,0.2672052678550805,-1.308890069954059,-0.5932562944174764,-0.9224378842991907,23.11443878884896,22.779439779888246,2.677644330992418,663.4374048243723,758.0982686305138,9.607459986954455,-4907.550594227898,-837.8930636683367,-1354203.8765341677,0
5.155917511586695,6.531465605982278,28.022339992524472,4.918111854087939,8.254482296077292,50.161609395020804,25.933167387890293,36.72211678337564,387.7480976011292,0.1370808346861623,0.15583647531700456,0.2731564429824354,390.95074510349997,524.8777769683,5997.253857999998,1.850025086546528,1.7828630155039091,1.946157303667118,13.995358588562624,12.445406413406703,15.329268509086047,203.30347829307584,166.7829814119356,232.9924273627824,5.1559175115867015,6.531465605982282,28.02233999252446,699.1126561546226,1391.1739040140076,151133.83873195143,-2368.557494334044,-5762.1855014275525,-913332.3635084655,0
1.6074462878914955,1.0158263835034997,2.1875583850497953,0.6882469303142784,0.4169040297434316,0.957664825723216,0.8401518895087413,0.5333800633625435,1.1453895148657047,0.10219885421211318,0.08331805547451009,0.25278816673142357,4.0407638536652595,2.678284728874576,5.282048681921663,1.850025086546528,1.7828630155039091,1.946157303667118,0.4385940395037792,0.753981163032373,0.33555563581883513,-0.28520779342490243,0.5176830530493479,-0.30444897598596876,1.6074462878914961,1.0158263835034993,2.1875583850497953,3.2897387659012596,1.3163975334144298,6.097328828765962,-2368.557494334044,-5762.1855014275525,-913332.3635084655,0
1.771909685860144,1.0353969081588656,2.143886868856548,0.7686415042156556,0.4146931623878197,0.9293275771747598,0.9457951215891024,0.5197890039812246,1.1523266250096258,0.10219885421211318,0.08331805547451009,0.2731564429824354,4.08488248725977,2.678284728874576,5.282048681921663,1.850025086546528,1.7828630155039091,1.946157303667118,0.47008199827409525,0.7202812431946536,0.6707018458541611,-0.23442911642318265,0.5433434476338652,0.03796453368058117,1.7719096858601433,1.0353969081588656,2.1438868688565473,4.034192346866737,1.342227366084732,5.924107557161606,-2368.557494334044,-5762.1855014275525,-913332.3635084655,0
2.145374700352774,1.4129463220289755,2.5990349351253994,0.8064326364705654,0.6523658272587913,1.0167998534631388,1.0073935471464166,0.7896797659246234,1.3063440063189857,0.2557368601642245,0.15583647531700456,0.585452412246001,4.65092830326968,3.489101738105891,6.081229431076356,1.850025086546528,1.7828630155039091,1.946157303667118,0.5009146566550225,0.7397780345184377,0.6772896556797782,-0.16528478341712383,-0.16042035663844745,0.23476805113043842,2.1453747003527734,1.4129463220289757,2.599034935125399,5.617474363745992,2.6200114416459783,8.461517256847825,-2368.557494334044,-5762.1855014275525,-913332.3635084655,0
2.6036614939312535,1.9228137708154502,3.2655036014244043,0.9578553610730748,0.8828128011798186,1.2879507333124267,1.1541312755942028,1.0585111860178602,1.5370752370767051,0.49082949931809067,0.1565645798395975,0.6185785529376273,5.59429614688247,4.569362402118622,7.357164250620267,1.850025086546528,1.7828630155039091,1.946157303667118,0.2167263500274718,0.5645889751031079,0.6085530524349142,-0.5732888020872937,-0.5822851729575684,-0.463925850822942,2.6036614939312526,1.9228137708154505,3.265503601424405,8.111072176285024,4.81765872816247,13.026114055350167,-2368.557494334044,-5762.1855014275525,-913332.3635084655,0
4.0922745976167825,5.985484625591459,2.2990004069583576,1.787021270987372,3.502370771297053,1.0845152013097503,2.684589661925915,4.283958042876919,1.3071572577901627,1.102092525233652,0.27074056385067197,0.30955559007513905,15.017559411525,16.53639193722071,6.33061684270215,1.850025086546528,1.7828630155039091,1.946157303667118,2.141963251547777,0.9281228239707262,0.62361841568242,5.4202833950567,-0.1274951528463566,0.20080005803998002,4.092274597616781,5.985484625591459,2.2990004069583576,23.953733035219088,54.178322716321574,6.994062967788191,-2368.557494334044,-5762.1855014275525,-913332.3635084655,0
28.94932506288729,61.34181342259108,6.007495314819315,20.455723242590583,48.10693039175525,5.1196009042249715,27.28944388334975,60.722744802577544,6.867104652155986,7.401473323790549,10.844778323197977,1.072388828884952,90.74883977606991,193.1732568387889,21.95316566361479,1.850025086546528,1.7828630155039091,1.946157303667118,1.4840201011406882,1.2971576337231892,1.6563871511685133,0.8856452942798501,0.33458473627940766,1.2414452768129802,28.94932506288729,61.34181342259108,6.007495314819315,1582.7771690592092,7450.069810330934,83.24712626123842,-2368.557494334044,-5762.1855014275525,-913332.3635084655,0
3.982056801248976e+22,4.7063836110933105e+22,3.087754307813494e+23,2.9082772414375773e+22,4.415902144668324e+22,5.404586190140784e+23,1.0968408497780698e+23,7.538398870371484e+22,3.888019859344093e+24,7.877074556180035e+20,8.802957285540024e+19,5.247245398378289e+21,1.4152052303181925e+24,6.069761596680774e+23,5.5976013189231415e+25,1.8219059968237298e+22,2.0132161594867132e+22,2.814422642834406e+22,10.603114091380817,3.7623876069286166,14.24740833342927,122.83332437791347,18.042427653777104,200.9941066619646,3.982056801248972e+22,4.706383611093313e+22,3.087754307813495e+23,1.36162761342561e+46,7.897750422358579e+45,1.5212040693308267e+49,-9.959867021734846e+47,-7.866905281619106e+47,-8.998768654714608e+50,0
2.2779635445969566e+22,1.431652184236544e+22,3.5316532662705223e+22,8.199670005470568e+21,4.325518539181762e+21,1.6398136291042762e+22,1.141204007341943e+22,5.365187155621315e+21,1.9333498754556177e+22,4.3593354777543574e+20,3.75965522294695e+20,4.1005809052206697e+21,6.418031998212055e+22,2.5089605381365548e+22,7.310268366093185e+22,1.8219059968237298e+22,2.0132161594867132e+22,2.814422642834406e+22,1.1731020538619972,-0.17350380669135965,0.22254770554643113,2.94268538371691,-0.18231463940816228,-0.9458913945539158,2.2779635445969566e+22,1.431652184236544e+22,3.5316532662705215e+22,6.4914644968860405e+44,2.3374803087777063e+44,1.6210416534083492e+45,-9.959867021734846e+47,-7.866905281619106e+47,-8.998768654714608e+50,0
2.0486469714380837e+22,1.4299169739170684e+22,3.831427101162073e+22,7.558514634641717e+21,4.7073337784093534e+21,1.7358884409797589e+22,9.66972925765173e+21,6.203130907972552e+21,2.0914719119600574e+22,4.3593354777543574e+20,2.8918731461251857e+21,3.073439810885937e+21,6.418031998212055e+22,3.5571943397182434e+22,8.230381806224903e+22,1.8219059968237298e+22,2.0132161594867132e+22,2.814422642834406e+22,0.8298185938909205,0.6666976151548956,0.24127818920387048,2.5923055566625672,1.1401731622906368,-0.7512882133796768,2.0486469714380832e+22,1.4299169739170688e+22,3.831427101162073e+22,5.131991052745288e+44,2.429450882910592e+44,1.9054088390037067e+45,-9.959867021734846e+47,-7.866905281619106e+47,-8.998768654714608e+50,0
2.305720599300429e+22,1.2660695308153827e+22,3.177514962024639e+22,8.608751854778223e+21,5.758280107813804e+21,1.6115537916677839e+22,1.0246026132003152e+22,6.672205381096806e+21,1.8534568747752046e+22,7.683114645970643e+21,3.75965522294695e+20,4.1005809052206697e+21,4.483284552159145e+22,2.5800483072004076e+22,6.797360854840581e+22,1.8219059968237298e+22,2.0132161594867132e+22,2.814422642834406e+22,0.4476026635051686,-0.09557286269750552,0.33924849507979,-0.8302657721921634,-0.9913940698624453,-1.052324827506492,2.305720599300429e+22,1.2660695308153825e+22,3.1775149620246404e+22,6.366157997015245e+44,2.048115303334455e+44,1.353190372054192e+45,-9.959867021734846e+47,-7.866905281619106e+47,-8.998768654714608e+50,0
2.563416662639181e+22,1.903762108751652e+22,3.803956058577424e+22,1.068499392633066e+22,9.731581990917733e+21,1.5948181034304404e+22,1.3061840736050974e+22,1.3452182670389514e+22,1.9828889691513904e+22,7.877074556180035e+20,8.802957285540024e+19,6.488390977673804e+21,6.674733425092131e+22,6.565323676250555e+22,1.0712476750198024e+23,1.8219059968237298e+22,2.0132161594867132e+22,2.814422642834406e+22,0.39205955408222526,1.5935779440552873,0.6833906530541025,-0.1293817018733825,2.544608563909626,0.36189321259461193,2.56341666263918e+22,1.9037621087516525e+22,3.803956058577423e+22,8.2772218204358e+44,5.433922352693818e+44,1.8401930359570146e+45,-9.959867021734846e+47,-7.866905281619106e+47,-8.998768654714608e+50,0
2.6739350158335336e+22,4.910589978687117e+22,4.363842480021731e+22,1.258357872880034e+22,1.9000104914117565e+22,1.8883714943493777e+22,1.5678379027630618e+22,2.204647572028186e+22,2.2309515403776674e+22,4.205275542079876e+21,6.785713646697338e+21,5.247245398378289e+21,7.525332218828344e+22,9.853588189239647e+22,9.744095410936946e+22,1.8219059968237298e+22,2.0132161594867132e+22,2.814422642834406e+22,0.6883258768042025,0.3245121255365796,0.48124446984556807,0.5092028339553178,-0.6396934672354408,-0.2967594082713467,2.6739350158335327e+22,4.910589978687117e+22,4.363842480021733e+22,9.60804415824115e+44,2.8974364855632126e+45,2.4020265965955713e+45,-9.959867021734846e+47,-7.866905281619106e+47,-8.998768654714608e+50,0
8.995826468611694e+22,1.935147861582535e+23,2.7048852733649477e+22,8.008484370630436e+22,6.990216641252718e+22,1.0513002737461772e+22,1.380276630158933e+23,8.634042861788439e+22,1.2139838276700928e+22,1.1039846008860315e+22,6.768491651396486e+22,5.707775795911836e+21,6.815382132380667e+23,3.719115326489409e+23,4.745722556246309e+22,1.8219059968237298e+22,2.0132161594867132e+22,2.814422642834406e+22,3.332631764079401,0.47327123088738116,-0.28262874502592483,11.238460169409928,-0.6425582305718276,-1.0698250322766858,8.995826468611696e+22,1.935147861582535e+23,2.7048852733649477e+22,2.7144125142966475e+46,4.490264207579456e+46,8.790161075911096e+44,-9.959867021734846e+47,-7.866905281619106e+47,-8.998768654714608e+50,0
6.3152094475172866e+22,4.027242750845645e+22,3.074629009366076e+23,5.5630721306377255e+22,3.5684819421138864e+22,5.356434819969672e+23,2.148446518447423e+23,9.905734396821261e+22,3.543066111089337e+24,3.340125783673958e+21,4.978030203828594e+19,4.0515385989178054e+21,2.782214977493487e+24,1.1370099074619383e+24,4.690844583467283e+25,2.4880736749219566e+22,1.6768970596701836e+22,2.609505072265091e+22,11.722445943753057,8.578394596497652,13.076257296886284,144.5693451023817,86.22927941768002,168.99432715474867,6.315209447517286e+22,4.027242750845642e+22,3.074629009366079e+23,5.014641146288967e+46,1.1434225811460667e+46,1.264785090300207e+49,-2.7165116986277828e+48,-7.438996742166146e+47,-6.426112840243453e+50,0
2.1961627231854457e+22,9.937289193302692e+21,1.6064900515226152e+22,6.757622880864968e+21,3.173386342362193e+21,7.574806533105957e+21,8.014871397763224e+21,3.636643096719717e+21,8.465371250693272e+21,7.544889721850849e+21,2.1033233121793933e+21,1.4840716996781843e+21,3.299867359171623e+22,1.3061729011661562e+22,2.686058460708309e+22,2.4880736749219566e+22,1.6768970596701836e+22,2.609505072265091e+22,-0.40483411059203894,-1.0977257127260347,-0.5165522198226465,-0.9425795069024119,-0.2519925768200868,-1.2329059117458034,2.1961627231854453e+22,9.937289193302692e+21,1.6064900515226154e+22,5.465512341936142e+44,1.119748895242496e+44,3.2974353897617774e+44,-2.7165116986277828e+48,-7.438996742166146e+47,-6.426112840243453e+50,0
1.5714319935009622e+22,9.909366588439758e+21,1.7539121070028026e+22,6.350451076114004e+21,3.459620035596597e+21,8.748817603159777e+21,7.800373734633176e+21,4.4138643439573297e+21,1.0567536985647532e+22,1.0730310918580396e+21,1.7507211579959384e+21,2.2771390134474485e+21,3.550873166497136e+22,2.3068480682120672e+22,5.177959488204938e+22,2.4880736749219566e+22,1.6768970596701836e+22,2.609505072265091e+22,0.38137743274097313,0.5346987230668605,0.8606556910352092,-0.3864742265006753,0.055213107501690395,0.32751721427595415,1.5714319935009626e+22,9.909366588439754e+21,1.7539121070028028e+22,3.077856814197961e+44,1.1767774463094398e+44,4.1929360585212965e+44,-2.7165116986277828e+48,-7.438996742166146e+47,-6.426112840243453e+50,0
1.303888363412851e+22,8.091870237241603e+21,1.80245737929986e+22,5.016328286926242e+21,2.706203094339832e+21,8.092695805746025e+21,6.088482114960927e+21,3.389396660081633e+21,9.613737508476824e+21,1.0730310918580396e+21,2.8459462947986e+21,4.320822730170577e+21,2.2731261287859678e+22,1.6978093321963168e+22,4.369621324318489e+22,2.4880736749219566e+22,1.6768970596701836e+22,2.609505072265091e+22,-0.20976683516435968,0.7080220119608199,0.6726124295822765,-0.9329871163969763,0.16382567482722044,-0.1274246649322479,1.3038883634128513e+22,8.091870237241603e+21,1.8024573792998602e+22,2.070821008885434e+44,7.696637365572901e+43,4.173092093011461e+44,-2.7165116986277828e+48,-7.438996742166146e+47,-6.426112840243453e+50,0
2.2426842848628226e+22,1.3605774561002033e+22,2.4130141471602943e+22,9.304084245047648e+21,5.786275308771665e+21,1.0527618751631957e+22,1.1836343765355008e+22,7.691217210183606e+21,1.3317808854372182e+22,2.557493363052467e+21,4.978030203828594e+19,1.4840716996781843e+21,6.301202738791116e+22,4.305644137434219e+22,5.73871325173807e+22,2.4880736749219566e+22,1.6768970596701836e+22,2.609505072265091e+22,0.8259005885074682,1.1959574839560592,0.7047980340636532,1.0106316676337315,1.9112100964508105,-0.1592816898909537,2.242684284862822e+22,1.3605774561002037e+22,2.4130141471602935e+22,6.430623138887254e+44,2.442719235790347e+44,7.596277601211662e+44,-2.7165116986277828e+48,-7.438996742166146e+47,-6.426112840243453e+50,0
3.5533264807167082e+22,2.1408929413271147e+22,3.7521437978222003e+22,1.6510109060276377e+22,7.330779974701716e+21,1.17901478718093e+22,2.0609514142728383e+22,8.729858876740332e+21,1.4750535668702403e+22,3.340125783673958e+21,2.759245575931392e+20,9.054046994111903e+21,8.646783240963732e+22,4.0048666721173895e+22,7.462236944105646e+22,2.4880736749219566e+22,1.6768970596701836e+22,2.609505072265091e+22,0.5515400709020342,-0.20578191078961589,0.5162492116582417,-0.28410115171662165,-0.6423348805614326,-0.22356105666971526,3.5533264807167087e+22,2.1408929413271147e+22,3.752143797822202e+22,1.6873649810555803e+45,5.3455269463022855e+44,1.6254366104672228e+45,-2.7165116986277828e+48,-7.438996742166146e+47,-6.426112840243453e+50,0
1.0794980019124256e+23,8.862869400129937e+22,5.7953212891099585e+22,6.788615007643523e+22,6.165890005754808e+22,1.9180060240484615e+22,9.8979781115702e+22,9.461973735778572e+22,2.4180928341593247e+22,1.7365596923669917e+22,6.651280660408356e+21,8.504485057701016e+21,4.7478070522860756e+23,4.621743529781746e+23,1.145245990093012e+23,2.4880736749219566e+22,1.6768970596701836e+22,2.609505072265091e+22,2.1603729011972836,2.48841744272671,0.02253011238512892,4.362037551221311,6.0365349691459524,-0.08756835826349363,1.0794980019124256e+23,8.862869400129937e+22,5.795321289109959e+22,2.145015643104147e+46,1.6807940098032315e+46,3.943292179862379e+45,-2.7165116986277828e+48,-7.438996742166146e+47,-6.426112840243453e+50,0
3.4389866367376958e+22,3.4387724669274703e+22,3.6255658559792895e+23,2.6992845268370256e+22,3.815121625446817e+22,6.65770329081078e+23,1.234751622135479e+23,1.2124895801056988e+23,3.980849164586356e+24,2.4017371132551863e+21,1.2270461902422567e+21,4.0278011486593855e+21,1.4690323790519888e+24,1.2147992369624554e+24,4.763224995035452e+25,1.5327636161839818e+22,7.787311148179264e+21,1.7280058992208816e+22,11.099404700714267,8.03166464810665,11.789920942503034,125.45219284198063,68.9853411126885,137.00387715908442,3.4389866367376966e+22,3.4387724669274703e+22,3.625565855979289e+23,1.6428778592428012e+46,1.588382542657878e+46,1.597860734894832e+49,-7.1947636782295876e+47,-8.41640625832434e+47,-6.61479084298335e+50,0
2.1905579434157204e+22,1.0784404677850097e+22,2.4767750937201993e+22,9.036583754104098e+21,3.164909114398265e+21,1.0977615120933025e+22,1.0629546492116335e+22,3.9903644551028476e+21,1.32605322110809e+22,2.682708178310705e+21,1.6917468452472383e+20,2.204047084016613e+21,5.089968914604838e+22,1.992697670938849e+22,6.360652983646336e+22,1.5327636161839818e+22,7.787311148179264e+21,1.7280058992208816e+22,0.2854957020253856,0.07025518178228485,0.6357424081499374,-0.49318764613315924,0.029000562718549006,0.2102888132724039,2.1905579434157204e+22,1.07844046778501e+22,2.4767750937201997e+22,5.928416689742336e+44,1.3222639274018331e+44,7.892832010083845e+44,-7.1947636782295876e+47,-8.41640625832434e+47,-6.61479084298335e+50,0
1.6361961099747513e+22,9.386211589903826e+21,2.2515558561842396e+22,6.626567138218459e+21,4.216789437518039e+21,8.60898159463443e+21,8.578232940627112e+21,5.028592532267247e+21,1.0878007004835944e+22,7.376777125435623e+20,2.8834561258228076e+20,3.5620603057778406e+21,4.343587547044585e+22,2.208210153062805e+22,5.455666227046251e+22,1.5327636161839818e+22,7.787311148179264e+21,1.7280058992208816e+22,1.1018923410859114,0.29864187185909824,0.6618466644049225,0.923007531605978,-0.5797581444136157,0.47142939764459246,1.6361961099747515e+22,9.386211589903825e+21,2.2515558561842404e+22,3.4129985141331096e+44,1.1338771086601879e+44,6.252814137490146e+44,-7.1947636782295876e+47,-8.41640625832434e+47,-6.61479084298335e+50,0
1.7225029694895373e+22,9.620723303129513e+21,2.2802478535358976e+22,7.103108602337181e+21,4.2778234794910826e+21,9.180448968791509e+21,9.129828017406862e+21,5.083667561668982e+21,1.1545155286843775e+22,7.376777125435623e+20,1.1342384755910629e+21,3.5620603057778406e+21,4.343587547044585e+22,2.208210153062805e+22,5.455666227046251e+22,1.5327636161839818e+22,7.787311148179264e+21,1.7280058992208816e+22,1.0238389421335512,0.3289665259648092,0.5711623542439781,0.6902507522808414,-0.6656085815837791,0.1421241850730972,1.722502969489537e+22,9.620723303129513e+21,2.2802478535358976e+22,3.800554076174546e+44,1.1840199275294469e+44,6.532436379528435e+44,-7.1947636782295876e+47,-8.41640625832434e+47,-6.61479084298335e+50,0
2.041407329526523e+22,1.0468106832736395e+22,2.6632172777159988e+22,8.289066577610216e+21,3.092384205639157e+21,1.091267253917556e+22,9.88763826631118e+21,3.858556408111317e+21,1.3272066634498125e+22,2.682708178310705e+21,1.6917468452472383e+20,2.204047084016613e+21,5.089968914604838e+22,1.992697670938849e+22,6.360652983646336e+22,1.5327636161839818e+22,7.787311148179264e+21,1.7280058992208816e+22,0.39464980455481435,0.15929297467756048,0.5846731793866029,-0.176879636912882,0.0606571353235652,0.16012512307023075,2.0414073295265226e+22,1.0468106832736399e+22,2.663217277715999e+22,5.1449977898988214e+44,1.2446971821615938e+44,8.854203795830602e+44,-7.1947636782295876e+47,-8.41640625832434e+47,-6.61479084298335e+50,0
2.0452141856727094e+22,1.278040703764981e+22,2.899348529258721e+22,8.36029872208614e+21,4.75001365599571e+21,1.1665141846486448e+22,1.0032120045731624e+22,6.369704112801167e+21,1.4264061884749928e+22,2.4017371132551863e+21,1.2270461902422567e+21,4.0278011486593855e+21,4.774958834888677e+22,3.3921016651008845e+22,6.952575202555534e+22,1.5327636161839818e+22,7.787311148179264e+21,1.7280058992208816e+22,0.2773742926261197,1.0544858736996199,0.7555045175200106,-0.33298780571232456,1.485150007736416,0.09566886444380618,2.0452141856727094e+22,1.2780407037649807e+22,2.8993485292587232e+22,5.189335391396586e+44,2.0391193453264484e+44,1.044085650863448e+45,-7.1947636782295876e+47,-8.41640625832434e+47,-6.61479084298335e+50,0
4.134434793168087e+22,8.408442335980628e+22,1.9656519336287327e+22,2.8407964787618632e+22,8.129381531279777e+22,6.038098201366721e+21,5.144943343577923e+22,1.4496572345552266e+23,7.163985043441535e+21,6.498355727906902e+21,6.341798654317785e+21,6.766090407323649e+21,2.7929442577928147e+23,7.503415956277743e+23,3.8744073366887155e+22,1.5327636161839818e+22,7.787311148179264e+21,1.7280058992208816e+22,3.6838298463474026,3.6689330201831973,0.4269478114133531,14.063734047118253,13.702518532258235,-0.03859246636239977,4.134434793168087e+22,8.408442335980628e+22,1.965651933628733e+22,4.3563993067585614e+45,2.8085251228734206e+46,4.377014341204917e+44,-7.1947636782295876e+47,-8.41640625832434e+47,-6.61479084298335e+50,0
106.96261720023767,63.040306650880034,123.94064369816664,65.00479772722494,41.11219951534295,101.3936496796989,242.7831293077663,62.78437378686947,559.339098470845,0.9391899716956013,1.3791870776356474,2.378496546664014,5709.5823482415,549.0959949411001,13471.517004160003,75.79961570517682,39.42725390761729,57.03699827133245,20.892333637080654,3.023658856644465,23.0441714169888,477.78903868046694,13.720151737279242,546.6249889501274,106.96261720023769,63.04030665088003,123.94064369816658,70384.64935479616,7915.95785444633,328221.5102384937,-503382.89412613487,-77121.4904954967,-2315847.2779390677,1
40.611721502247185,28.145995099620254,47.16980799492205,20.476728973501267,12.05546809323968,20.241771780996515,26.72985312828644,15.444503771924088,24.621161177838403,0.9391899716956013,1.3791870776356474,4.175410943528689,154.84030844498307,98.33358913791146,154.7552855544925,75.79961570517682,39.42725390761729,57.03699827133245,1.3683051921959626,0.9373789290197633,0.7885051446185929,2.553245262931533,1.5356074139242049,0.6653089076413705,40.6117215022472,28.145995099620254,47.16980799492203,2363.796971635851,1030.7297369088249,2831.192364022907,-503382.89412613487,-77121.4904954967,-2315847.2779390677,1
107.79967516378761,68.75737082677917,118.64510026523398,51.374088410438304,44.35205034412171,77.79740517313543,70.11978229192121,65.81907233842635,117.51282985063688,6.564086320484074,2.258785562829003,5.212993674758769,544.1686716537524,497.96760374243496,896.6158869399735,75.79961570517682,39.42725390761729,57.03699827133245,1.7857722385794244,2.5775890832662447,2.6651101729006976,5.994654170936029,9.21314361786973,9.489892975959497,107.79967516378763,68.75737082677918,118.6451002652339,16537.553834084556,9059.726326502227,27885.92499645215,-503382.89412613487,-77121.4904954967,-2315847.2779390677,1
151.98867671833838,132.42238357974736,236.3178843653533,48.46328933575408,39.554064836350975,72.92777104366711,62.84765450053284,53.672954651559024,98.05233137642512,35.60617109321154,30.72391096280669,67.04666976531091,295.57632870464136,286.88405562643555,538.5391095188302,75.79961570517682,39.42725390761729,57.03699827133245,0.008577020403907497,0.5961411523863864,0.7345359782842471,-0.1300695926687423,1.0019333728143112,1.2879285754461813,151.98867671833835,132.42238357974736,236.31788436535325,27050.38552680991,20416.473733970048,65460.40215926876,-503382.89412613487,-77121.4904954967,-2315847.2779390677,1
96.6130098046038,70.33967774348137,127.58544672998632,51.74926859662896,43.54457083191847,79.79619096988323,69.44975691302523,60.280850504349864,108.80976985273432,3.461992664352237,5.144517027470492,2.378496546664014,381.2495310106896,286.50669784735595,554.6520557058045,75.79961570517682,39.42725390761729,57.03699827133245,1.4544934592544974,1.7600890312312083,1.8593186990583055,2.9531669891609713,2.742098306151232,3.4441278887210762,96.6130098046038,70.33967774348142,127.58544672998624,14157.342398782766,8581.451202584592,28117.612232695174,-503382.89412613487,-77121.4904954967,-2315847.2779390677,1
137.03697714585277,65.96527387868146,62.42768834207068,77.58034404151653,37.726154061977795,27.802126426174787,119.10108823875554,63.75552098864389,36.17946970810423,7.064940895241112,6.985011849062384,5.325113553923666,721.9298026818238,453.84924326088264,193.16705636158258,75.79961570517682,39.42725390761729,57.03699827133245,2.652207544905434,3.7966686998760775,1.1076288756900918,8.682844939014378,19.17630479905342,1.5001608431619706,137.03697714585277,65.96527387868146,62.427688342070695,32964.20232492881,8416.183814422866,5206.170300094341,-503382.89412613487,-77121.4904954967,-2315847.2779390677,1
62.725353233539984,45.63255689096177,109.68149362254454,36.92944155412169,23.96994597823699,73.8441324234531,125.34995609302973,51.877575124757904,349.88384026566007,5.09027397519939,1.9935732259478443,7.84626323400312,1657.4100661803,581.4270008003,4766.496854880001,35.648662397604575,25.63929618098889,57.862258545597854,11.42540830501936,7.3895237716218825,12.952114088508395,141.19752483863326,67.83203031411873,169.42212243815518,62.725353233539984,45.632556890961766,109.6814936225445,19647.081430796847,4773.613049231762,134448.73172231816,-120452.98651480181,-34328.659793051345,-815329.3066943856,1
48.10646216152563,22.478835098423065,52.337073659330656,18.32809964159077,10.560566039895704,21.555367138421598,21.475915643022333,12.493342181422605,26.211521802933074,16.178907837629897,5.609005758940339,12.293698313989125,88.38533240266003,52.688915008485395,118.70281712468231,35.648662397604575,25.63929618098889,57.862258545597854,0.21704003239737266,0.5176132528478331,0.623332501714737,-1.046548738217612,-0.5419408754821582,-0.1432537749294842,48.106462161525634,22.478835098423065,52.33707365933065,2775.4466544045085,661.38162624421,3426.2131544478375,-120452.98651480181,-34328.659793051345,-815329.3066943856,1
35.859199481603476,29.434154997183835,59.40360964194195,16.407779904183865,10.778739219424356,27.64235303064579,18.973958816626695,12.168159301524609,30.79426991920855,5.879275432992239,10.986260027535305,17.625827227222924,67.91777668512307,47.174092254873145,114.08724393965208,35.648662397604575,25.63929618098889,57.862258545597854,0.10433240920092011,-0.04106197914690815,0.15175800619785806,-1.2627709603725674,-1.3838247763471399,-1.3403729023346203,35.859199481603476,29.434154997183835,59.40360964194195,1645.893300636478,1014.4335811855221,4477.07589834929,-120452.98651480181,-34328.659793051345,-815329.3066943856,1
41.10933692694631,27.765549086745732,59.570884525478526,17.29148313375739,9.668294901880525,21.83301304594011,20.752059704830028,11.59584481578391,26.577205274088602,5.879275432992239,1.9935732259478443,12.293698313989125,101.40844888517343,52.688915008485395,118.91083764236372,35.648662397604575,25.63929618098889,57.862258545597854,0.4644032283344125,0.025091727811761284,0.4441856852353467,-0.34054693167234396,-0.7667428750679623,-0.5528499729908156,41.109336926946305,27.765549086745725,59.57088452547853,2120.625564566022,905.3893330802288,4255.038123328941,-120452.98651480181,-34328.659793051345,-815329.3066943856,1
42.14598813560613,32.75987144524786,66.38741031943056,17.023536167067718,11.318005202802887,29.84341252226666,18.824999845494446,15.39206054419792,37.02914973770703,15.165567025623934,7.319309515951703,13.435229984715278,77.15396299120974,72.05407596445525,154.85893641357976,35.648662397604575,25.63929618098889,57.862258545597854,0.17492975845809738,0.8636402770376952,0.6793609992218124,-1.2928218652931527,0.39176732029712547,-0.24607155300333927,42.14598813560613,32.75987144524786,66.38741031943056,2130.664935109519,1310.1247049054207,5778.446179217964,-120452.98651480181,-34328.659793051345,-815329.3066943856,1
51.96244104927991,42.36456078282132,88.22988034999145,22.792455991512192,18.790694343511536,43.017236868511155,28.555016577073,22.847005720935318,53.609115028375484,5.09027397519939,3.0828837526503317,7.84626323400312,133.21598894565454,104.98593844337918,255.9540046409142,35.648662397604575,25.63929618098889,57.862258545597854,0.5857801438531774,0.5448539906604816,0.7102860926058001,-0.17348492609533395,-0.4841780955122128,0.1258552221751561,51.96244104927988,42.36456078282132,88.22988034999145,3515.484251516801,2316.741680733813,10658.449000699402,-120452.98651480181,-34328.659793051345,-815329.3066943856,1
236.85413923447445,173.47907857822705,51.8850283213911,138.68459898287097,129.7349135680356,8.725704781455974,147.1893494476082,143.81745812866882,10.046726186279834,28.827240760167964,24.966273784101986,38.79647114920713,347.2444230771059,368.0814489302805,63.21703225006228,35.648662397604575,25.63929618098889,57.862258545597854,-0.7031272012456752,0.44779559247889655,-0.25691301790497456,-1.4999999999999998,-1.5,-1.4999999999999996,236.85413923447445,173.47907857822705,51.8850283213911,77764.58786331392,50778.45196694209,2792.9928709736364,-120452.98651480181,-34328.659793051345,-815329.3066943856,1
78.35146390988366,41.77124470498332,115.20857193909914,54.51006959583377,25.039712793204163,93.71084687501676,192.08223091092785,80.42433672937932,408.4611265316931,12.018096477580396,6.634384866743443,14.311055886245834,1865.3274861595,791.8008280198,4012.1747495,33.05027917565657,18.307067150466118,41.06601854538995,8.69456912971653,8.722966068232967,9.334930211765881,77.60538757895435,78.34817265844164,86.08914575529424,78.35146390988366,41.77124470498333,115.20857193909916,43034.53532854082,8212.910822564192,180113.50693578643,-148613.24477970382,-26795.04906663877,-605716.7338826238,1
