accX_mean,accY_mean,accZ_mean,accX_mad,accY_mad,accZ_mad,accX_std,accY_std,accZ_std,accX_min,accY_min,accZ_min,accX_max,accY_max,accZ_max,accX_iqr,accY_iqr,accZ_iqr,accX_skew,accY_skew,accZ_skew,accX_kurtosis,accY_kurtosis,accZ_kurtosis,accX_sma,accY_sma,accZ_sma,accX_energy,accY_energy,accZ_energy,accX_entropy,accY_entropy,accZ_entropy,Tremor
22.50055553666264,9.593315814259809,40.10410366613577,22.727231159073668,8.288983361814703,56.27927442383602,134.74325475493958,78.81218891632821,728.8737588305976,0.23652207603494005,0.40606486419302984,0.1407564186409725,3331.8454604411195,2083.06260412,19335.0445541,10.486753876720327,2.4301137017643337,9.104358369017202,21.75234962734524,25.949130453722944,26.426252390403818,519.250797163199,679.4729019651085,696.5639220623569,22.500555536662638,9.593315814259823,40.10410366613577,18662.019701412988,6303.392830095132,532865.2954427085,-95025.82254896885,-24613.280876725403,-3203220.58741027,0
2.6982151182616114,4.623015862428548,4.501238234254214,1.3092979646028267,0.7477350764244479,1.9888359380155887,1.647218299331149,0.993944957094673,2.5923354041427817,0.15532018252191443,1.2533618965624278,0.26800369218507786,8.722310792904635,9.713196898012445,16.93942833174812,10.486753876720327,2.4301137017643337,9.104358369017202,0.9736872383541808,0.5348252796209101,1.2394042323098582,0.6765593654006188,2.1630809576021726,2.2787587926587864,2.6982151182616096,4.623015862428547,4.5012382342542185,9.993692950066917,22.360202241999893,26.981348489084155,-95025.82254896885,-24613.280876725403,-3203220.58741027,0
10.420812328580404,5.612985094507078,12.272338948306071,5.214363025429857,2.1343875990409513,5.434397723155096,6.459406745416807,2.6852319186600977,6.883593002775822,0.23652207603494005,0.5198931333891067,0.1407564186409725,32.64899677219067,13.393323746382542,39.63783724440931,10.486753876720327,2.4301137017643337,9.104358369017202,0.8469481979647516,0.41523436373939737,0.7524476762726305,0.21340185072171503,-0.21288411355304415,0.4564273736094817,10.420812328580402,5.612985094507076,12.272338948306075,150.31726509022945,38.71607212814961,197.99415588997456,-95025.82254896885,-24613.280876725403,-3203220.58741027,0
13.015700618697506,5.539497812018781,12.265145408794305,5.32895868808658,1.9151896543000528,5.527635096223132,6.330654485889954,2.2866291210649523,6.521352034983055,3.748561133693443,0.8288663857270322,0.7528625504745494,27.7983417792203,9.354429093222612,23.840512903772062,10.486753876720327,2.4301137017643337,9.104358369017202,0.6653912808241201,-0.07733812244747558,0.09811077835972448,-0.5015506022732299,-0.9338588827696364,-1.0169831899530666,13.015700618697503,5.539497812018784,12.265145408794305,209.48564881528117,35.914708746663166,192.96182426304566,-95025.82254896885,-24613.280876725403,-3203220.58741027,0
14.320939242047649,4.980841659572382,11.615866404685496,5.783153109395074,1.949945255645536,5.407573008052477,7.158876383752716,2.4055570503364594,6.605918783404952,2.0789925045274527,0.40606486419302984,1.5838718642006602,34.10587156718248,13.478369282729577,32.657935582965976,10.486753876720327,2.4301137017643337,9.104358369017202,0.36406238696135124,0.6032404469237209,0.6501194410586657,-0.4018892064599915,0.3360733215534655,-0.22228217029493136,14.320939242047649,4.980841659572381,11.615866404685494,256.3388118522727,30.59548836015518,178.56651530444353,-95025.82254896885,-24613.280876725403,-3203220.58741027,0
46.55287574908947,9.064730474421486,16.090277916430964,20.933804012657085,5.053112408413656,6.372974616851864,26.766833071825076,7.069823733330069,8.406009969055527,14.331257135562497,1.5781867498908335,3.00357729107667,117.26891392774631,39.924388613917415,39.27919108623199,10.486753876720327,2.4301137017643337,9.104358369017202,1.1995162326035762,1.902778159924465,0.9836293765669994,0.4598450601546227,4.957839929066233,0.6571730641329556,46.552875749089466,9.064730474421486,16.090277916430956,2883.6335932051115,132.1517461942627,329.55804702784667,-95025.82254896885,-24613.280876725403,-3203220.58741027,0
306.5385445090146,68.95345335382956,73.28419544565689,187.72245755626264,16.762243544845816,51.68666103864721,253.3899429522641,19.29765921604462,61.742630474002574,65.6646874051002,45.92089710794611,12.068549807392401,967.1535652117112,106.72418542628849,216.40608237254483,10.486753876720327,2.4301137017643337,9.104358369017202,1.4324073823923402,0.6685492491622155,0.9951597333817007,1.4783314035347095,-0.8626222739136438,0.053721472356720756,306.5385445090146,68.95345335382956,73.28419544565689,158172.34245905682,5126.97838063734,9182.725719966467,-95025.82254896885,-24613.280876725403,-3203220.58741027,0
13.435343498940583,4.455618777517424,23.947359454681298,15.616861943374849,4.436686927928982,33.79260018646567,103.33583445392372,29.817615195651644,372.35561815982845,0.24459282900965004,0.13908521134349616,0.1696106263509556,2219.7664650114,666.87713532,8454.463659500001,5.955401339298109,2.668406807326032,6.869335845339255,19.464216954137534,21.382337469421792,22.58016313344263,404.3236831214307,470.99444168507483,508.2366778794883,13.435343498940604,4.455618777517412,23.94735945468133,10858.80313722326,908.9427146465217,139222.18240003972,-87292.86963906788,-4879.218877676893,-1280423.9971272782,0
3.2169909437832516,1.2648239267441257,3.510895569591487,1.441447079871824,0.4916194705688867,1.5500139752901494,1.6719962203510965,0.6397793047471066,1.838852395832867,0.3283557746783186,0.38301647439538977,0.7389014557302518,6.641849026212634,3.0653211989133613,7.827249657389653,5.955401339298109,2.668406807326032,6.869335845339255,-0.15316637946322992,0.9630976995470625,0.6525871813512883,-1.070606314844411,0.5652217215728941,-0.37669227093785773,3.2169909437832516,1.2648239267441257,3.5108955695914865,13.144602093251809,2.009097124447121,15.707765834237401,-87292.86963906788,-4879.218877676893,-1280423.9971272782,0
3.133623256737283,1.1985442294343789,4.219335427851116,1.1562103294382498,0.39111921519248943,1.4975803745830496,1.4144361858688688,0.4760727789274326,1.8204174950427383,0.44741514747697875,0.3444382458344329,1.5984941319024943,6.022567229302001,2.0354737508601786,8.460641603529572,5.955401339298109,2.668406807326032,6.869335845339255,0.259694601492047,0.25976269653160217,0.5866844847511522,-0.669124361915979,-0.8366793154546883,-0.35384396563374443,3.1336232567372835,1.198544229434379,4.219335427851116,11.820224439060052,1.6631535607461374,21.116711308977248,-87292.86963906788,-4879.218877676893,-1280423.9971272782,0
4.357989744806429,2.1779579150893578,5.282226021513581,2.2210312301871813,1.136764497132291,2.538458378714209,2.7991800915534624,1.4260267576138672,3.2721417464369824,0.24459282900965004,0.17344915410726866,0.1696106263509556,12.178299928689672,6.623668544245114,17.024036430020086,5.955401339298109,2.668406807326032,6.869335845339255,0.8985546146415676,0.9073279403895002,0.9622472751012012,0.10096952223561528,0.47827175720605286,0.7903899149031073,4.357989744806428,2.1779579150893587,5.282226021513583,26.82748380078725,6.777052993331107,38.608823351130866,-87292.86963906788,-4879.218877676893,-1280423.9971272782,0
8.902216133267128,3.0759857777973454,7.043808666982714,3.3386912067652905,1.3132912405443662,2.7944130581317137,4.474060157341615,1.5964420748649366,3.3233673655958627,1.0393090604849744,0.5235959440058214,2.1379855471184372,19.90324005905055,5.914649443778346,13.7656573474138,5.955401339298109,2.668406807326032,6.869335845339255,0.40208634715624253,0.2894340239366534,0.6446212341069988,0.33660557984549966,-0.9885986764549548,-0.5511979762799348,8.902216133267128,3.075985777797346,7.043808666982714,99.2666663749132,12.010315803610606,60.66001118376838,-87292.86963906788,-4879.218877676893,-1280423.9971272782,0
10.23338850292807,4.180452148035092,10.734160490141303,4.806623485639667,2.033580126620312,4.301678688925184,7.3447610221447155,3.1627455194927756,5.291467458226747,0.766646437705529,0.20745292282434077,0.6238408980139365,43.97395965609878,21.29278642564563,24.465266786052446,5.955401339298109,2.668406807326032,6.869335845339255,2.394285654150313,2.526789654828856,0.2295708322192997,7.0943020352859225,9.251478780804943,-0.48020001045513405,10.23338850292807,4.18045214803509,10.734160490141305,158.66775472427668,27.47913938308282,143.2218292895833,-87292.86963906788,-4879.218877676893,-1280423.9971272782,0
168.48052938948712,35.68088088401423,46.12815123661761,135.59043066148456,15.84887065357872,34.62193677562365,183.50053956378696,19.367982803769287,52.03244739436674,21.377276207429247,7.087606687374004,10.857045258730732,652.5235908038782,76.84301839412672,193.7363322458116,5.955401339298109,2.668406807326032,6.869335845339255,1.7120782819862677,0.485562590341208,2.201197533666123,1.9914971627783018,-0.19550834150542373,3.535125326401836,168.4805293894871,35.68088088401423,46.12815123661761,62058.136803562775,1648.2440185463151,4835.18191835581,-87292.86963906788,-4879.218877676893,-1280423.9971272782,0
11.562478978817602,6.718684896975279,27.245406374673205,11.118808862382938,7.4932463155359645,36.356988329223675,85.51658336792339,78.89011385507021,477.83120104073953,0.05898282612217452,0.1328753626081241,0.13332874460430486,2236.377045284,2092.306853,12713.151856999999,8.06482876661525,2.9494191650561277,7.944015382161549,25.042447241542092,26.179370080617332,26.50544582148739,646.2345009604833,688.874116639548,700.6931130272274,11.562478978817596,6.7186848969752715,27.2454063746732,7446.7769510585895,6268.790790810791,229064.96885655654,-48944.37322847806,-38720.30849585633,-2020574.0886362619,0
3.962640666850572,2.2513817868844517,6.3199050793099625,2.0520082936641995,1.0627881600208708,2.7353947270611485,2.7166540027466146,1.4717612856687834,3.546219332998802,0.05898282612217452,0.1328753626081241,0.13332874460430486,15.375501172447194,10.631148304291981,23.286643648223865,8.06482876661525,2.9494191650561277,7.944015382161549,1.4052533530515423,1.694403095414547,1.0086247195521818,2.289580581728722,4.3974968523954825,1.3388238291793133,3.9626406668505716,2.2513817868844526,6.319905079309962,23.082730025217153,7.2348012323084605,52.516871769222334,-48944.37322847806,-38720.30849585633,-2020574.0886362619,0
8.771654164154608,3.9062816583274516,10.921097425776967,3.8700562119077526,1.6945671321079487,4.3257263712259295,5.148682046403068,2.2296243532163587,5.778851241152394,1.9271781191599366,0.8215514904283896,2.06771451040847,26.190987045828884,9.731084991315301,27.411004958788222,8.06482876661525,2.9494191650561277,7.944015382161549,1.2519410256220402,0.9869385360660822,0.9409481701230342,2.1386810522244497,0.38912992270957947,0.9112637572132152,8.771654164154608,3.9062816583274524,10.921097425776967,103.45084359048417,20.23026115064093,152.66549065068077,-48944.37322847806,-38720.30849585633,-2020574.0886362619,0
13.490970587113859,4.756957872513304,12.124467399948244,4.8265277831065765,1.9983861163792669,5.308375315252158,5.954877247277586,2.2541946272323816,6.961036204902419,1.915743124993291,1.0897115622012534,0.29902020354047376,29.298064174084235,10.17637626877213,27.002439900471348,8.06482876661525,2.9494191650561277,7.944015382161549,0.31570860441364773,0.3386024939913122,0.8916212560096295,0.053334116281237076,-0.6877059483406769,0.03583010689351118,13.490970587113857,4.756957872513304,12.124467399948244,217.4668504125155,27.710041618309642,195.45873477837,-48944.37322847806,-38720.30849585633,-2020574.0886362619,0
12.330910709733965,4.343044193617739,15.519798713557888,4.906477683979102,1.8980931643139007,6.536322617860845,6.09546308233974,2.4726445098645597,8.454472152302134,0.6873761743771528,0.1356597647808362,1.0293697631322356,32.392394514451766,13.111709318567181,42.35237988776954,8.06482876661525,2.9494191650561277,7.944015382161549,0.42370951859910544,0.8372642816088188,0.9105024306571509,-0.05685220418728143,0.9683006426624354,0.7159694038837352,12.33091070973397,4.3430441936177395,15.519798713557895,189.20602911959855,24.9760037398801,312.3422514834056,-48944.37322847806,-38720.30849585633,-2020574.0886362619,0
16.850146961646065,9.44471630572469,10.257425296039449,5.418892254150304,3.659542876274398,3.603557467486036,7.231123312910346,4.793901620830812,4.448852175587175,6.934821840841183,2.4034071907796335,1.2392664350857032,39.76353597463719,21.036579180623367,18.072163118996787,8.06482876661525,2.9494191650561277,7.944015382161549,1.105570329032577,0.87922874402352,-0.12863433383453463,2.2258032211539067,0.29404134834657025,-0.6250556106708638,16.850146961646065,9.44471630572469,10.257425296039449,336.21659699558546,112.1841588458261,125.00705938405667,-48944.37322847806,-38720.30849585633,-2020574.0886362619,0
101.72814409292434,47.5170233902462,17.28016878617793,73.79980539800218,29.1019828011188,11.967284561643103,96.03521918809867,37.66354285125377,13.340879946059493,13.371590520339618,10.484448681255817,2.922979378248665,340.53062250148315,126.76835141471226,40.73145210828653,8.06482876661525,2.9494191650561277,7.944015382161549,1.4002423425629238,1.2906776001896663,0.5623077019234185,1.086837802498449,0.07009037911399174,-1.1772522033640398,101.72814409292434,47.5170233902462,17.280168786177928,19571.378625096935,3676.409971977434,476.58331101397033,-48944.37322847806,-38720.30849585633,-2020574.0886362619,0
8.309568679262723,6.126132420818479,22.56726537911306,8.175805695323652,7.461525537435838,31.64696184914331,41.14177531587396,39.29935116261994,403.085939832532,0.23783981505092025,0.02704112207700631,0.20475920773885734,1025.0043789835001,969.868743556,10508.846872499998,6.820772086477762,3.182719638166629,8.316669740863292,22.489548125744708,22.08359868642452,25.96810823103356,547.8312080809106,531.827838778022,672.5623605482077,8.30956867926272,6.12613242081848,22.567265379113046,1761.6946077772402,1581.968500240321,162987.55635736702,-12553.02093709769,-11144.507054780466,-1683667.3920395412,0
2.001561153211174,1.237644313927444,3.554336037018235,0.7947917677184344,0.4737166428144905,1.5605653959118264,0.9811663374504396,0.5482985039729653,1.8230439955517208,0.39190482579718966,0.06050591398328719,0.6979570267807197,4.9004249941967055,2.3428653899172045,8.043020187318806,6.820772086477762,3.182719638166629,8.316669740863292,0.7896282159065123,0.030952704172334353,0.3475923273982821,0.3168774341140792,-0.8857345003745496,-0.8433243586783257,2.0015611532111746,1.2376443139274436,3.554336037018233,4.968934431789956,1.8323946972559249,15.95679407376366,-12553.02093709769,-11144.507054780466,-1683667.3920395412,0
2.527184043831192,1.3260483968456327,3.676185082899213,0.9455340958766296,0.4623908801689575,1.8879567163450552,1.1914794766136776,0.5753600414218524,2.4484451421701268,0.5736647000921672,0.02704112207700631,0.472864718307081,5.202307339023119,2.2793046148321072,11.716452193208099,6.820772086477762,3.182719638166629,8.316669740863292,0.6614256664483669,-0.3543714034372834,1.3790269852784105,-0.12139724064674695,-0.6307645346927142,2.1896383805796793,2.527184043831192,1.3260483968456325,3.6761850828992126,7.806282534586583,2.0894435280418273,19.50922037794718,-12553.02093709769,-11144.507054780466,-1683667.3920395412,0
5.072225593808082,2.6913857309842166,7.486885234868601,2.470119779472949,1.3299825959570364,3.697358082245938,3.272109642658043,1.808603503946941,4.751313541376787,0.24785632548712222,0.3022204069682743,0.6377572809398988,17.151521009323694,11.213126678073603,24.236539243841126,6.820772086477762,3.182719638166629,8.316669740863292,1.2070106785523602,1.6803060278081534,1.1200420375197282,1.8524980527536776,3.9603848626422584,0.9769083983682756,5.072225593808082,2.6913857309842166,7.486885234868603,36.434173988057495,10.514603787434599,78.6284308885639,-12553.02093709769,-11144.507054780466,-1683667.3920395412,0
8.963480547905665,3.9605646683809552,12.541543902174736,3.0212257335194357,1.5065444978676634,4.194101624834841,3.7811491909000483,1.934436683016463,5.279302189759538,1.1687367074488009,0.3701285639143565,3.9038998763452946,16.81351428817977,8.156700505304032,23.7498088360648,6.820772086477762,3.182719638166629,8.316669740863292,-0.15848740683748627,0.08377766985073594,0.27556645272299957,-0.33297952956190624,-0.26539773591610505,-0.6611581359674403,8.963480547905666,3.9605646683809552,12.541543902174734,94.64107273652733,19.42811777302728,185.16135506097612,-12553.02093709769,-11144.507054780466,-1683667.3920395412,0
12.143652073951188,8.4291057345088,14.351220030870344,6.283746579987521,6.108703486577885,7.098137042912495,8.003030166068351,8.46598256399111,9.330491050298505,0.5329985056707033,0.4351319322283639,0.9082463123496288,44.803391808256364,43.461354005598245,58.93596741247593,6.820772086477762,3.182719638166629,8.316669740863292,1.276291128749107,1.8803712029029915,1.4792586456035728,1.8475410341745535,3.4301860846624566,3.158722259045744,12.143652073951188,8.429105734508799,14.35122003087035,211.51677753217905,142.72268425733066,293.01557961415483,-12553.02093709769,-11144.507054780466,-1683667.3920395412,0
81.3872154956166,84.23847576642584,11.684607804549767,41.82123791770109,39.024013406093495,5.345412541704811,48.49072199116372,49.54518569996952,6.4493241929543785,23.384357764330723,32.69218505525776,4.160354255419563,181.58283101023937,212.15692399679574,25.607570961260755,6.820772086477762,3.182719638166629,8.316669740863292,0.6331034650097848,1.3814238725479893,0.6712607371954997,-0.6994329769183758,1.310255271231127,-0.46864771572868724,81.3872154956166,84.23847576642582,11.684607804549767,8975.228965354263,9550.846225495177,178.12384209197194,-12553.02093709769,-11144.507054780466,-1683667.3920395412,0
8.456981734379347,4.981278478189428,29.684065853924384,8.222704733919647,4.417708922429068,46.62924533824871,35.68457138983303,24.133035009390106,397.7507107060937,0.1072410387040484,0.39668685765308226,0.1763422432491117,583.6296075156006,386.6305532913,6790.924639899992,3.626551858427729,1.6354103488284966,5.491012059984519,14.67015157716642,14.336355004879751,16.937231887786137,230.53826436950808,216.75080036379262,284.9146230000312,8.45698173437934,4.981278478189431,29.684065853924434,1344.9091753317161,607.2165140417213,159086.77163282267,-5830.617898017811,-2369.594712488609,-1053899.340550111,0
1.592441659115983,1.9568796364505345,2.325456685561109,0.7780241899223999,0.39041641460494125,0.8976001257531208,0.9241179795588184,0.5317452354793666,1.1792362887190315,0.253554560157552,1.048022967564124,0.04726682262608451,3.7638193249375616,3.1726794869248995,5.184740492620166,3.626551858427729,1.6354103488284966,5.491012059984519,0.4672954822175495,0.49479277465183774,0.4452876291834958,-0.7014065968885053,0.10181846232683567,-0.06777172689355249,1.5924416591159827,1.9568796364505343,2.325456685561109,3.389864477831936,4.112130907009783,6.798347021052694,-5830.617898017811,-2369.594712488609,-1053899.340550111,0
1.6733629918432051,1.783211033762464,2.550978743015646,0.6937052171621788,0.40185883392352045,0.9962746765691446,0.8606352781085809,0.5012498309456254,1.244935081011661,0.1072410387040484,0.9088614573001101,0.04726682262608451,4.804941498763466,3.1726794869248995,6.351294703098989,3.626551858427729,1.6354103488284966,5.491012059984519,0.4480653139224672,0.5684789481038934,0.39246516077624627,0.24358227341568295,0.13646294036133266,-0.1733838893193469,1.6733629918432051,1.7832110337624634,2.550978743015647,3.540836784395477,3.431092983955212,8.057355903251201,-5830.617898017811,-2369.594712488609,-1053899.340550111,0
2.9998183583821287,2.372321059920678,3.42844623463249,1.1679588472141254,0.5720624667887095,1.7702200436295867,1.370579762803227,0.6967614825240505,2.219681436512869,0.4230387742472116,1.0021071328173994,0.23815188086621805,6.008440506236866,4.477109424235782,9.404322669093897,3.626551858427729,1.6354103488284966,5.491012059984519,0.1828565973389307,0.21945165867904237,0.9301145132718195,-0.8134994224732996,0.009282452341911274,0.07747681670155693,2.999818358382128,2.372321059920677,3.4284462346324913,10.877399069492197,6.113383774872278,16.681229263365545,-5830.617898017811,-2369.594712488609,-1053899.340550111,0
3.0074133597911383,1.5474899996985727,2.9875076275141668,0.8382754831803052,0.5843939445559092,1.2318547661747983,1.000980040927054,0.7675697518369167,1.5996997961616921,1.1151715611902058,0.39668685765308226,0.41086256412625494,4.709803228973184,3.189233659654207,6.217537119278206,3.626551858427729,1.6354103488284966,5.491012059984519,-0.17680230901352229,0.9131403484125332,0.24222601434353938,-0.9621320644507607,-0.07756489033740843,-0.49957086362959924,3.007413359791138,1.547489999698573,2.9875076275141668,10.04649615898455,2.9838886231020743,11.484241262295082,-5830.617898017811,-2369.594712488609,-1053899.340550111,0
6.1905950582984435,3.3479984614839684,8.98156827164426,3.2038095110591285,1.396535426397021,4.248277467499554,4.064099907557004,1.732996434721831,5.1519335196251195,0.18069195920397305,0.5027721799694449,0.1763422432491117,20.49639118903076,8.693976003014775,23.578239714970064,3.626551858427729,1.6354103488284966,5.491012059984519,1.0418922068348626,0.6718428541624392,0.5397595205253732,0.7821946913806443,0.009429589917477443,-0.33040890353218577,6.190595058298443,3.347998461483969,8.981568271644258,54.84037523443394,14.212370340857603,107.21098760884371,-5830.617898017811,-2369.594712488609,-1053899.340550111,0
40.340843121866186,19.276602956247167,5.188519471568059,22.015674857470223,18.484371184027303,2.268444188808502,32.183887260811886,34.884023898634204,2.504717392391917,8.89064432875453,1.7497281123251847,1.2107868354566684,145.30787727572374,146.38583934184598,9.769679299085348,3.626551858427729,1.6354103488284966,5.491012059984519,2.203606392126447,3.179365120581854,0.07121712485865792,4.691284034504849,8.774254492702196,-1.2239284901171348,40.340843121866186,19.276602956247167,5.188519471568059,2663.186222999668,1588.482544893279,33.19434352259147,-5830.617898017811,-2369.594712488609,-1053899.340550111,0
7.033277935822511,6.134903387781557,26.531772725777355,6.439839267418469,7.256269341281376,41.84698528629039,31.054071689581708,37.552984267268045,555.5759406068198,0.1957482171821557,0.030152526519817948,0.19528041135477942,759.7453607666196,827.1809992627,14756.6705935,5.128131615037951,2.431205577169252,4.700965452428562,21.015743975257976,17.95633181722171,26.473818347752626,492.5145767067191,359.1251810988343,698.9092740531951,7.03327793582251,6.134903387781563,26.531772725777373,1013.8223670242078,1447.8636669550951,309368.560745125,-5130.750096381541,-8771.980827559695,-2465289.361200537,0
2.398758090830018,1.2858767231615644,3.486864065148798,1.3592105116694346,0.6168891139268075,1.6629708125278009,1.9571111684024474,0.7715995190199066,2.2322420529738993,0.09774460415198054,0.011876876555493916,0.19528041135477942,15.95043135208327,4.511533366884112,13.737696655709533,5.128131615037951,2.431205577169252,4.700965452428562,2.235781464298196,0.9174322611449062,1.5589861649286751,7.203763649565136,0.8478300876384766,3.359864134483515,2.3987580908300163,1.2858767231615638,3.486864065148796,9.584324503808059,2.248844764920472,17.141125591891115,-5130.750096381541,-8771.980827559695,-2465289.361200537,0
7.838487618291312,2.913631648892691,6.294392762509773,2.975559832355704,1.1244769994211914,2.4740510154058013,3.7612356801505347,1.3702654477443565,2.979023000695989,1.1176070627717,0.8201814921039503,1.170216896692673,20.445594161540217,5.610279688463027,14.116653207977265,5.128131615037951,2.431205577169252,4.700965452428562,0.7851487059353219,0.3891945775701277,0.2888450744903872,1.3209479787336162,-0.9428653557762026,-0.34930054917487485,7.83848761829131,2.913631648892692,6.294392762509773,75.58878198374366,10.366876782711188,48.49395828741115,-5130.750096381541,-8771.980827559695,-2465289.361200537,0
9.370278634190147,3.7679903139360102,6.779662685309033,2.724998349581125,0.8123062921324593,1.9449505784719585,3.629909124074709,1.030858137061094,2.696793871257546,0.6388724861921943,2.1447193569427054,2.3512686760204202,16.152830433251413,5.915697126254706,14.782863215280553,5.128131615037951,2.431205577169252,4.700965452428562,-0.4555852620914757,0.16445507143250457,1.386388477493253,0.4592832449883981,-0.5476837146528326,2.473031776482859,9.370278634190147,3.76799031393601,6.779662685309033,100.97836193140115,15.260419504660662,53.23652331062394,-5130.750096381541,-8771.980827559695,-2465289.361200537,0
8.229779076653713,6.035138954015271,9.747379246920422,3.444571263691866,2.7429364734314796,4.719605969682915,4.360124176517607,3.4121710575183943,5.8359962294737615,0.4281739796600082,0.29290330258443154,1.037092679787755,24.327225552049477,15.920983806625756,25.149481918966938,5.128131615037951,2.431205577169252,4.700965452428562,0.6697467284986658,0.8290890523770038,0.7729631444321619,0.6537710495014051,0.307552269814948,-0.14515677040152664,8.229779076653713,6.035138954015273,9.747379246920426,86.73994648518057,48.06581352003876,129.070254173727,-5130.750096381541,-8771.980827559695,-2465289.361200537,0
26.149570482420284,36.863375129256376,8.734011931756676,11.27430816892373,23.316473682744533,3.4590075632881288,13.914637515533501,28.73925982710471,4.511202891175176,7.822018656009347,7.654099591431407,0.7387118360976614,58.39719964107988,116.232155243377,21.79306182428719,5.128131615037951,2.431205577169252,4.700965452428562,0.87183237325366,1.1216673599752722,0.902102990685238,-0.10652625761297774,0.5310336455890345,1.1953191291981389,26.149570482420284,36.863375129256376,8.734011931756676,877.4171736037587,2184.853481330112,96.63391594941524,-5130.750096381541,-8771.980827559695,-2465289.361200537,0
136.06245180242172,206.99394042218626,10.453034034912005,52.55094942217385,138.04309434989636,6.20634531484817,66.96061907683628,160.89239608952295,7.517964279963175,55.26191143025787,86.07887368901832,2.6148169922482603,241.16435064676938,483.080129121979,22.865724664608344,5.128131615037951,2.431205577169252,4.700965452428562,0.522540460537514,1.0917509687483709,0.8273912057325098,-0.951253619851435,-0.7166208672874528,-0.8422467774002214,136.06245180242172,206.99394042218626,10.453034034912005,22996.715297639497,68732.85449093152,165.78570744983097,-5130.750096381541,-8771.980827559695,-2465289.361200537,0
6.318694420591966,4.651372823685383,24.67954041411598,5.403588661432523,5.0463954239218305,37.52187958314015,18.826272627982302,18.928930641622017,378.05285488226764,0.14817528751691378,0.0708502558404287,0.31562467361666136,336.1818270601433,275.5580899068,7622.860156000001,4.809811835121685,2.796092185119497,6.170990347444027,14.409029309743458,11.769877482066207,20.045326610277485,237.3457060143923,150.54026211760635,399.87781133557854,6.318694420591962,4.651372823685384,24.679540414115987,394.35444024393564,379.9396843802558,143533.0407996849,-3265.629467588689,-2426.6252540956225,-1200061.8468697087,0
1.7432062355125015,0.766269790205165,1.6471606664766918,0.6139210319249919,0.26481537744253886,0.8005508205850043,0.7952463147055056,0.36133436605627667,0.9608436812251401,0.5382699098812089,0.12423173092867142,0.31562467361666136,3.788064219225978,1.7103466718274989,4.425471185485717,4.809811835121685,2.796092185119497,6.170990347444027,0.8586163010658855,0.6411011723813576,0.7167560424577806,0.45594311906370155,0.7149601810170223,0.00023161336951238454,1.7432062355125015,0.7662697902051647,1.6471606664766913,3.6711846805823547,0.7177319154743584,3.636358840938217,-3265.629467588689,-2426.6252540956225,-1200061.8468697087,0
1.0205142374132716,0.7073738948997249,2.0362138274179933,0.49297230618895777,0.24812645271149053,0.5136945622431455,0.5788788791832271,0.3352750365161609,0.6539176008638308,0.14817528751691378,0.0708502558404287,1.1168442443598343,2.143218938102458,1.5393011258174796,3.5271296387095656,4.809811835121685,2.796092185119497,6.170990347444027,0.24188743144212183,0.27579541880120045,0.7542721211013231,-1.119011745922466,0.37664736366762863,-0.18828912807586162,1.0205142374132716,0.7073738948997249,2.0362138274179933,1.37655006552762,0.61278717729652,4.573774979687741,-3265.629467588689,-2426.6252540956225,-1200061.8468697087,0
3.241891664202683,1.3575160683808463,4.431292308560031,1.478747526794305,0.5666127714164851,2.082119985669305,1.9231045446337751,0.6807529266968384,2.619818952174863,0.24188807729829817,0.18422174844752343,0.4758782432540765,11.519779301818346,3.7586003735407587,14.07379795502637,4.809811835121685,2.796092185119497,6.170990347444027,1.031169142138733,0.5425234632762188,0.9054332050360367,1.6944472311530863,0.01952803830453309,0.8322882301530679,3.241891664202683,1.3575160683808463,4.43129230856003,14.208192652017921,2.3062744231185013,26.49980286607787,-3265.629467588689,-2426.6252540956225,-1200061.8468697087,0
5.30620391766033,2.6936950147948835,8.061037758625108,2.0847886945439544,1.1603757131287336,2.640794438117994,2.596842522098788,1.4265717077717808,3.224274722148738,0.8696197589727807,0.39462309503065157,2.3386148664261572,11.747034711376399,5.594899082799746,14.569706976170002,4.809811835121685,2.796092185119497,6.170990347444027,0.46144837644385817,0.47624801520409493,0.29508837889389283,-0.2456171378010712,-0.674412721990199,-0.6544753276096156,5.306203917660331,2.693695014794883,8.06103775862511,34.89939110037423,9.291099670145702,75.37627722986706,-3265.629467588689,-2426.6252540956225,-1200061.8468697087,0
6.99769696927782,3.82317155756368,8.862224306830075,2.6586024556074466,1.7586217583155783,2.6168435146119435,3.290604267366858,2.0798493718643507,3.5368934904806335,1.0223495813438659,1.0439409383543776,2.4984518588414666,14.437887807064277,8.471665463434434,18.633525223588194,4.809811835121685,2.796092185119497,6.170990347444027,0.121146293369499,0.4937477962774925,0.5479766930772871,-0.37501631581745043,-0.6615385454259632,0.9454927424701789,6.99769696927782,3.82317155756368,8.862224306830077,59.79583931825298,18.942414168208423,91.04863522757412,-3265.629467588689,-2426.6252540956225,-1200061.8468697087,0
14.355630667527649,11.446433263338006,10.507285844779101,10.299968058813471,9.276882657800929,4.532391597959618,33.4933375380193,25.09423089459566,5.396643713557053,1.2626670305399303,0.5461948319871451,0.8480723824597288,336.1818270601433,227.60020735176508,22.0268126800255,4.809811835121685,2.796092185119497,6.170990347444027,8.844019625823629,6.974918236065931,0.08689360517940868,81.53480030072413,53.843738681984156,-0.9456607857408748,14.355630667527649,11.446433263338006,10.507285844779101,1327.8877912981527,760.7412586433301,139.5268191949701,-3265.629467588689,-2426.6252540956225,-1200061.8468697087,0
6.060387638491285,6.315328606416566,23.418099241248385,5.5634110922126485,7.868089442071851,35.12829719256144,18.943931853516126,56.65402022617018,392.3417226212487,0.05157752212794375,0.09183893577015843,0.225394960405363,335.4869382926,1256.6904149000002,8795.6239505,5.796690244948399,2.7440255525490276,6.07075280299515,14.184212011776888,21.487918801010498,22.309667324583543,223.66305709480943,470.6382675589683,495.8150616108963,6.060387638491273,6.315328606416573,23.418099241248385,395.60085239944067,3249.5613831943238,154480.4346814818,-2562.11425859229,-19838.632091173935,-1383444.2671066602,0
1.4185124980486286,0.9807571750004832,1.8899948990919297,0.5960361789975228,0.28566293935494086,0.9612844558989249,0.8033716636746632,0.3598881681728582,1.0477658672424324,0.1354314375428305,0.4348328300022596,0.26021711170329986,3.547191989991988,2.127541553500584,3.77967677599897,5.796690244948399,2.7440255525490276,6.07075280299515,0.9216375191982749,0.8711032816712047,0.12319702087905623,0.5866188940844634,0.9907737846130389,-1.36182019144227,1.4185124980486286,0.9807571750004832,1.8899948990919297,2.6575837371155573,1.091404129905744,4.669894031151799,-2562.11425859229,-19838.632091173935,-1383444.2671066602,0
1.72729483279929,1.2010413058130998,2.8000389324147035,0.7747322652096575,0.46250287720022804,1.1186686271212016,1.0101399754545668,0.5994889773114948,1.4079097858195615,0.05157752212794375,0.09183893577015843,0.2590967209467904,5.818406878440616,3.735451025537747,7.365550390825179,5.796690244948399,2.7440255525490276,6.07075280299515,1.0268278483577065,0.8567076261786937,0.8749473835645798,1.7349330061909276,1.8763578312137703,0.7128092474529488,1.7272948327992892,1.2010413058131002,2.800038932414702,4.0039302094264775,1.8018872521872191,9.822427988044549,-2562.11425859229,-19838.632091173935,-1383444.2671066602,0
2.98506970082735,1.7692638714569042,4.621849734556143,1.2284995996580366,0.6977945929589456,2.00561519828727,1.5338962138583423,0.929036726737133,2.577805022237001,0.3786192921871159,0.23316771616647555,0.5571141731758107,7.242358458612918,5.957989873871281,12.229265867768477,5.796690244948399,2.7440255525490276,6.07075280299515,0.6265818605364208,1.3669545408533916,0.6260368992225938,0.03513257322444874,3.7190836124390376,-0.021518405569650678,2.98506970082735,1.7692638714569051,4.621849734556142,11.263478713686442,3.9934038864691215,28.006573701486985,-2562.11425859229,-19838.632091173935,-1383444.2671066602,0
5.801266593131751,3.498312359892058,7.190406049742274,1.6348335325060734,1.8387114761767573,3.5469979946860066,1.9639721791691032,2.060767143760568,4.060649246069756,2.933435488931358,0.3105442373077773,0.7607763270245033,10.627785635592899,7.361462962756307,15.753656518916722,5.796690244948399,2.7440255525490276,6.07075280299515,0.6227918858840543,0.3795886718091032,0.20928714121363912,-0.11518799377423328,-1.059866521409645,-0.7881875324174534,5.801266593131752,3.498312359892058,7.190406049742274,37.51188080513673,16.48495058817663,68.19081145977717,-2562.11425859229,-19838.632091173935,-1383444.2671066602,0
8.931389624165222,4.975905009385436,10.676203883551732,3.649341356110528,2.5835811042744155,4.811389135732533,4.541271453175105,3.439469050419617,6.086267800527281,1.068673374221993,0.2657650191010257,0.34543869404489996,23.182013397877846,18.732357948383225,32.782765990905595,5.796690244948399,2.7440255525490276,6.07075280299515,0.6755536495752098,1.4207484740871543,0.9990875237829858,0.05426026907162562,2.408769978103569,1.1273115932380522,8.931389624165226,4.975905009385436,10.676203883551734,100.3928670300694,36.5895780112215,151.02398510290035,-2562.11425859229,-19838.632091173935,-1383444.2671066602,0
34.52514756360539,38.81041290243533,11.905390831244912,26.055735926701928,21.25341378715693,4.502576344556484,50.78494104340842,28.953997282634766,5.351501050241005,2.518889873119424,9.090303377261984,3.098329737460665,236.8819256643621,115.38890327193782,22.75974119312501,5.796690244948399,2.7440255525490276,6.07075280299515,3.4646624648042983,1.5380735694757317,0.21480151406699935,11.030837699300486,1.4797526044378113,-0.8465077731058077,34.525147563605394,38.81041290243533,11.905390831244913,3771.0960510711975,2344.5821083003398,170.376894335421,-2562.11425859229,-19838.632091173935,-1383444.2671066602,0
5.5040808483024275,6.664904041634643,25.432826396802323,4.633347652302719,8.219214673467357,37.46211283718854,11.305227424959977,46.32379773460508,393.2722161945148,0.07038983811848176,0.1438275418407608,0.14700108298250086,206.75235342641415,952.49726918,8283.1507208,4.351646751169178,2.545943199994155,7.604678896616435,13.157750303095876,19.353581103537092,20.94475218143572,225.19407159284808,390.46632881739026,436.7894880332976,5.504080848302436,6.66490404163465,25.432826396802305,158.10307311471684,2190.3151824408005,155309.864689075,-1182.8450993851945,-12265.666660080062,-1303906.913862886,0
1.778711279041516,1.0545559037644516,2.4032871072162405,0.5642530857373608,0.4487968626191123,1.1833760262953483,0.6822126501564308,0.5922099604043618,1.4764212419921559,0.5050067092962126,0.27956651016940737,0.14700108298250086,3.0051044062300534,3.0877503015391357,6.021712748307656,4.351646751169178,2.545943199994155,7.604678896616435,-0.0563546888394856,1.5315636150570937,0.6660724516014671,-0.8438679874216692,2.655938562903457,-0.19316586047124762,1.7787112790415165,1.0545559037644516,2.403287107216241,3.6292279142229686,1.4628007913665948,7.955608603517465,-1182.8450993851945,-12265.666660080062,-1303906.913862886,0
1.8334188129122613,1.1328382776263208,2.7000053582260697,0.7511166860462584,0.4375913813908381,1.0005328926403827,0.9495728908121505,0.5344319710998543,1.2488389134839426,0.10273272949021078,0.15320035059850323,0.279308936007445,4.236963920392872,2.7736212696724865,6.479585884324521,4.351646751169178,2.545943199994155,7.604678896616435,0.6285662998173974,0.45610110423748873,0.5543627445654831,-0.15024416899644732,-0.06523419864255153,0.21458374090011478,1.8334188129122615,1.1328382776263213,2.70000535822607,4.26311321850595,1.568940094989046,8.849627566281239,-1182.8450993851945,-12265.666660080062,-1303906.913862886,0
2.654351860342183,1.5407384425299817,3.724366935057027,1.1224693411506317,0.6336936992295654,1.687273384802416,1.3644894856870504,0.7901707145227056,2.108226713766779,0.07038983811848176,0.1438275418407608,0.3721385911211422,6.48218658898318,3.9907612261169128,9.73994235573609,4.351646751169178,2.545943199994155,7.604678896616435,0.37252316987455425,0.6198613906725219,0.7760528654587296,-0.37723737481877295,0.28776064066636753,0.038266789103117205,2.654351860342183,1.5407384425299828,3.724366935057027,8.907415355052517,2.9982447063790407,18.315528943585946,-1182.8450993851945,-12265.666660080062,-1303906.913862886,0
3.5564671744792675,2.010256476322717,5.78905736768031,1.4360696700761433,0.7203764171871461,2.1885355478800474,1.740577752881745,0.9140651489934813,2.932882713148213,1.2155337548529719,0.6994441466803031,0.9691601010702107,7.060718033189204,4.7804501752150586,13.711366038935955,4.351646751169178,2.545943199994155,7.604678896616435,0.5857968042160312,1.2719412111167807,0.74495045116551,-0.648163524921312,1.6331363169608153,0.7668243541232163,3.5564671744792675,2.010256476322717,5.78905736768031,15.678069676975412,4.876646197201901,42.11498621537728,-1182.8450993851945,-12265.666660080062,-1303906.913862886,0
8.053278307428366,5.448848827915903,12.17739041575894,4.011030897012477,3.2794339539638626,5.440691768098567,4.836563782591312,4.709493573267025,6.660034279068817,0.6103619352658345,0.5981483971990925,0.25236103806155424,22.419635802981134,26.042363720790465,34.23999118727276,4.351646751169178,2.545943199994155,7.604678896616435,0.7874865407167496,2.109383742275479,0.5065058175214224,0.01910194974625057,4.8276782422996165,0.11714338064486185,8.053278307428364,5.448848827915904,12.177390415758936,88.24764071997022,51.86928326612394,192.6448939361893,-1182.8450993851945,-12265.666660080062,-1303906.913862886,0
26.229290776216615,34.19032995943423,13.20223682836307,18.861915339365627,19.959574936470474,3.8222912129133215,38.5050377315224,30.75487426188198,5.022858496253063,2.36559490860804,4.959247539886874,2.5555161064741463,206.75235342641415,154.57987986398714,27.107151482002173,4.351646751169178,2.545943199994155,7.604678896616435,4.077741971528976,2.4152157713498954,0.43696032255951184,16.35173859482036,6.759553414185396,0.9611226070092682,26.229290776216615,34.19032995943423,13.202236828363068,2170.6136253292857,2114.840953599157,199.52816474556775,-1182.8450993851945,-12265.666660080062,-1303906.913862886,0
6.563644869609198,6.462016524049199,28.34207463173009,5.298784688089878,8.187249011839397,42.14696108587009,9.303596320729655,40.956115357112196,357.0839482658995,0.23252314392128787,0.00846124633529212,0.3023427069265988,103.81065365130002,654.2767930999998,6066.3948866,5.583078078763788,2.593360286962862,7.292294033505091,5.442027043328833,14.3066588449001,16.845794245726886,45.02060795261449,217.69440520774262,281.85539245569356,6.563644869609194,6.462016524049198,28.342074631730082,129.63833847344145,1719.1610427021667,128312.21930359417,-676.8041793357511,-8716.86214640624,-929509.7985651675,0
1.337090520600048,0.6429044057248091,2.476577053252605,0.5847612313382686,0.2660658973582403,1.1437927742449108,0.6988445788757803,0.32677184418107025,1.3423093053270514,0.3305816730999993,0.042346005547685,0.16931353200283197,3.1886227611456808,1.5101677805443234,5.905215399999179,5.583078078763788,2.593360286962862,7.292294033505091,0.6759364053261908,0.7283942315559873,0.3269781398107976,-0.1168614063407225,0.08405913576596058,-0.3709937621593551,1.337090520600048,0.6429044057248091,2.476577053252605,2.276194805702574,0.5201059130498675,7.935228171864944,-676.8041793357511,-8716.86214640624,-929509.7985651675,0
1.3092907706642896,0.5846594466210896,2.3710215342021836,0.5557587562316578,0.2245323733522564,1.027005922931915,0.6944210156689492,0.26113414971709187,1.131285917380269,0.42024212844376696,0.23565443174000442,0.5830387665799176,3.1886227611456808,1.1067334052437139,4.237301459268438,5.583078078763788,2.593360286962862,7.292294033505091,0.9928200765314744,0.7665366516101344,-0.10559506670502843,0.893476317093759,-0.7280298250449095,-1.3634638532181866,1.3092907706642896,0.5846594466210895,2.3710215342021845,2.196462869149384,0.4100177126717472,6.901550942513397,-676.8041793357511,-8716.86214640624,-929509.7985651675,0
2.618576218928533,0.9701205798588565,4.273738967039406,1.3048642330460982,0.4506933984398924,2.3985786547886963,1.6973537829795884,0.618911437402433,3.0015285000149063,0.23252314392128787,0.00846124633529212,0.16931353200283197,9.333581321182455,3.3728864949526276,14.154231402923838,5.583078078763788,2.593360286962862,7.292294033505091,1.2102678335570178,1.5456663785599822,1.1235912343073275,1.5244199485101664,2.8907993258249753,0.7211483108536654,2.6185762189285327,0.9701205798588566,4.273738967039406,9.73795127893317,1.3241853068132299,27.274018094792776,-676.8041793357511,-8716.86214640624,-929509.7985651675,0
4.662642236014751,2.684749603408298,11.26246894757478,2.13328067814832,1.3498383050827119,5.855882522380711,2.570380902903802,1.6531474637427328,6.781607964427188,0.5835256710147888,0.15083402787566144,0.7325350215497991,9.528098521898698,6.911316189093473,25.819568215795698,5.583078078763788,2.593360286962862,7.292294033505091,-0.029053382888929606,0.7567769605332184,0.1358136768380315,-1.0431689219050004,-0.11632454471562603,-0.9248036102150787,4.662642236014751,2.684749603408299,11.262468947574776,28.3470906070812,9.940776969880048,172.83341337826838,-676.8041793357511,-8716.86214640624,-929509.7985651675,0
8.088761089821283,4.0705102732779865,11.307551737262317,2.9944036880003297,1.7919674870089153,2.9226019116682025,3.8496990711799546,2.290750660799455,3.522717629146181,2.2622152725172873,0.898546915980534,5.061839688294318,18.006982302313787,8.943651250622557,17.794022510640403,5.583078078763788,2.593360286962862,7.292294033505091,0.7308132642032403,0.6912307757392734,0.15148780166948722,0.15883640611960237,-0.45155359208850676,-0.8687089019032297,8.088761089821281,4.070510273277986,11.307551737262317,80.24823890685056,21.816592474814765,140.27026578556138,-676.8041793357511,-8716.86214640624,-929509.7985651675,0
14.091494271741066,11.929785736318173,11.05089108274097,7.207312875571553,10.716576010359923,5.5892336876851685,10.13051830796201,26.974535573441223,6.816532628012321,1.296710512788488,0.6631819434419601,1.2277328213422913,59.034259708764715,219.509598167544,38.378178485812946,5.583078078763788,2.593360286962862,7.292294033505091,1.922852117219148,6.4402606506687325,0.9742192019080689,5.266263737766501,45.09524465035883,1.7082775562891852,14.091494271741066,11.929785736318173,11.05089108274097,301.1976119984647,869.9453571173068,168.58731079136044,-676.8041793357511,-8716.86214640624,-929509.7985651675,0
5.292582024957968,6.291512184809552,20.87038737512858,4.176804454099555,7.27820007779499,30.902210042669825,9.425494792292499,52.164917021543374,344.18480008534846,0.2857676223863081,0.11903001902036443,0.118573403849906,144.682326542,1167.473647918,7762.013939300001,4.590279786880231,2.936876685386569,6.25933366491223,8.845622987532927,21.77477559195448,22.440374934360335,107.7531563354912,481.2947474501608,501.7145002457311,5.2925820249579605,6.291512184809557,20.870387375128598,116.85137657044113,2760.761693436113,118898.7496789792,-823.3280432691314,-19184.49949440138,-1208332.9272366103,0
2.5856454161712366,1.7914236070405014,2.6394740411130044,1.0858888166940754,0.7298252522972456,0.9552431809123527,1.3854107800357593,0.8406246669561653,1.3185242885625592,0.3559113013778972,0.491265537907979,0.3532811239181345,6.055494468423562,3.554437663166448,7.352195598278531,4.590279786880231,2.936876685386569,6.25933366491223,0.5346422544971581,0.3804916195447887,1.2392847672071232,-0.10736147623773906,-1.0087811725159543,2.7808490776772716,2.585645416171236,1.7914236070405014,2.6394740411130044,8.604925247606618,3.9158483705571654,8.705329513238816,-823.3280432691314,-19184.49949440138,-1208332.9272366103,0
2.970832458502196,1.9970843085336603,2.9773436366734365,1.1519398100536533,0.6322033837898997,1.4242908028766699,1.4379164335737813,0.7952411199920465,1.7725658450974071,0.3024101660192208,0.49997787686314676,0.2847255198207283,6.829510413794415,3.8110533341200505,8.133042700875963,4.590279786880231,2.936876685386569,6.25933366491223,0.6158950308828386,0.09895456019419764,0.7315084191851242,0.11969013223309011,-0.31597663851003555,0.4159712785160954,2.970832458502195,1.9970843085336603,2.977343636673437,10.893449166431742,4.620754174317572,12.00656480604569,-823.3280432691314,-19184.49949440138,-1208332.9272366103,0
5.345312653893127,3.8978762474842203,7.35568156963483,2.4647733014456255,1.9822271014404982,3.4710582752279873,2.99274607413511,2.502834134832439,4.345348471809225,0.2857676223863081,0.3044729505213416,0.4867075986835465,13.63914917600644,11.549824065873414,19.463398741894387,4.590279786880231,2.936876685386569,6.25933366491223,0.5784810281717072,0.9725212083589746,0.754643987641164,-0.4254550285636629,0.1467438430257917,0.09123263842392015,5.345312653893131,3.8978762474842203,7.35568156963483,37.52889643212114,21.457617947184108,72.98810469532029,-823.3280432691314,-19184.49949440138,-1208332.9272366103,0
10.055989132181027,6.206791902409469,9.344135126925279,4.67898639553644,2.9337556242761162,4.083999402840285,5.545765815229244,3.2578491036760964,5.515381303607337,2.701074099312283,1.5925090945220317,1.586103637915621,22.824209649336446,11.916982149135043,25.084941091925828,4.590279786880231,2.936876685386569,6.25933366491223,0.621714411471631,0.2615376674666018,1.1322503045760954,-0.6982644822048991,-1.197561846841111,1.23324833207369,10.055989132181026,6.206791902409467,9.344135126925279,131.87843590390816,49.13784650213888,117.73229219442025,-823.3280432691314,-19184.49949440138,-1208332.9272366103,0
12.059460745570929,9.100244473137689,15.239520896466681,5.214484778078593,4.484799644677433,6.699270183005352,6.193836907807597,5.234443210937711,7.446014960530448,1.6080949125687236,2.081109732141063,4.5276612421451325,23.215000471137596,20.033498769496656,28.655700456919828,4.590279786880231,2.936876685386569,6.25933366491223,-0.11863680493269443,0.20546061149074857,0.005650754347882336,-1.0778735509476602,-1.0868136658856358,-1.373585601752978,12.05946074557093,9.100244473137689,15.239520896466683,183.7942091144857,110.21384519940496,287.6861359462879,-823.3280432691314,-19184.49949440138,-1208332.9272366103,0
27.20355664725273,32.196896626394356,20.408381996471068,17.35057621830761,13.688500626663277,7.135051790059092,21.505612460928397,21.623351166151263,8.238998552387336,3.8518176210839528,9.677802335822564,6.015981350812656,80.71847691331189,109.6964046810944,33.58751999820677,4.590279786880231,2.936876685386569,6.25933366491223,1.244018190361252,2.294782261998115,-0.031359610986617534,0.6216110758038544,5.917781828774096,-1.0953382955783753,27.20355664725273,32.19689662639436,20.408381996471068,1202.5248615799271,1504.2094680254197,484.3831528601249,-823.3280432691314,-19184.49949440138,-1208332.9272366103,0
9.545156309626039,5.890734741026009,38.5562606221349,7.139889235426693,5.474707134772332,55.470689268416564,23.776874073503564,15.597581961897072,748.4425404428476,0.31642654824919797,0.026678212262639063,0.16137483792814317,400.7395923886,328.24102726879994,20245.3998385,5.847836600323722,3.076542371440513,8.930443541203276,12.654672182440338,13.803721455126228,26.958529562368412,179.846508398182,257.2306695078199,724.8421508035647,9.545156309626034,5.890734741026007,38.55626062213484,656.4497496824396,277.98531884722763,561652.8215777056,-3314.019471402532,-1032.8685585596886,-3479151.4118143516,0
1.9341603500120772,0.9934707606912389,2.739695476121112,0.8967798483890738,0.43766942797979397,1.2715697375315111,1.207501574759176,0.5729095743306221,1.6367035191046206,0.07153449132539337,0.026678212262639063,0.11042475526587676,8.873899657549257,4.8617929117345,9.63572269567129,5.847836600323722,3.076542371440513,8.930443541203276,1.565778795819105,1.3551302446719724,1.1166874041531778,4.226219711762525,3.7439698181007737,1.3097319604291604,1.934160350012077,0.9934707606912397,2.7396954761211108,5.19903631260473,1.3152095327081252,10.184729711327929,-3314.019471402532,-1032.8685585596886,-3479151.4118143516,0
5.781561685973628,2.5381251475041804,10.470460847248464,2.4662011265952444,1.2387095230613747,4.745550317443264,3.107817052099246,1.6401399416020555,6.129489101269506,0.3481137955227634,0.17508696402336063,0.3205405552968867,21.3700494900428,9.850094909621978,30.074661422606493,5.847836600323722,3.076542371440513,8.930443541203276,0.9279159786179201,1.323267139891117,0.9607125016825816,1.5738089840579876,2.1445392748072827,0.5461760234480186,5.781561685973625,2.538125147504182,10.470460847248463,43.08498235803704,9.132138292431518,147.20118699634463,-3314.019471402532,-1032.8685585596886,-3479151.4118143516,0
11.003627702490485,5.403400916329951,15.163527209648818,4.024450372048048,2.6330301087311776,6.3710324529766345,4.8794554224193005,3.038639255190197,7.382523213525656,2.4297038415708365,0.7326415596934345,1.4201897532475178,21.650244603016677,10.592543454527258,32.43650996844426,5.847836600323722,3.076542371440513,8.930443541203276,0.17062671686414868,0.03239484477790399,0.3792869739290024,-0.6735245372922956,-1.2046163250615454,-0.7190537916397526,11.003627702490489,5.403400916329951,15.16352720964882,144.88890783439314,38.43006998577819,284.4342064360052,-3314.019471402532,-1032.8685585596886,-3479151.4118143516,0
10.672081085551516,5.957194779970741,14.621566975833465,5.347696403064137,2.5493564593799354,6.228341363763147,6.7828424549576045,3.1154385120932844,8.142956197387415,0.8296453507356563,0.741374203096752,1.0721346304161037,38.264998308230524,13.548640340400855,49.503662070427715,5.847836600323722,3.076542371440513,8.930443541203276,1.0468639534822017,0.5293082676213083,1.0195566920256718,1.4043109845411967,-0.5268286707721379,1.7686464920922562,10.672081085551518,5.9571947799707425,14.62156697583347,159.90026646536177,45.194126769144674,280.09795646135404,-3314.019471402532,-1032.8685585596886,-3479151.4118143516,0
17.586411140816022,19.06334605407341,15.279534293106147,7.2843475534371525,10.406586460614426,8.992283722077069,9.703414481869654,14.20100691415272,11.481942322169882,1.1420454267077758,3.999849092941771,0.8066382698103747,55.21613995161653,77.35394722188882,53.98852635550443,5.847836600323722,3.076542371440513,8.930443541203276,1.180339326540755,1.8319720285267007,1.219351540285061,2.3822436957319315,3.705526061236495,0.9651688964531391,17.58641114081602,19.063346054073396,15.279534293106156,403.43810942077545,565.0797601531691,365.2991677038429,-3314.019471402532,-1032.8685585596886,-3479151.4118143516,0
162.92734417523153,71.89915881118648,11.024819637490936,103.69856234571553,35.63085075333421,4.7891925835446285,118.86719362326862,38.14141050285609,6.089434081593012,12.06934513859396,30.731648061932834,2.6659755034611052,337.33623110362606,122.81601064964212,22.135823063025406,5.847836600323722,3.076542371440513,8.930443541203276,0.333896938286466,0.2855195392802315,0.5561536480811996,-1.4323850137253067,-1.6794545267191787,-0.51454062950826,162.92734417523153,71.89915881118648,11.024819637490936,40674.729199865986,6624.256232903596,158.62785547327226,-3314.019471402532,-1032.8685585596886,-3479151.4118143516,0
6.40104070899295,8.241200777723146,31.137507095548234,4.581596779491581,9.564078014631074,46.06861744317573,11.508953917398157,41.10803165771686,403.1186550066113,0.34710381054897,0.05528919397984287,0.12589221999826886,180.861332946577,653.1157829600002,7070.382202000001,4.54853824823079,3.35586611152521,7.644598987537062,11.702080300091591,13.433334399797287,17.400127197021558,170.3874540211221,199.33327381090837,300.84441524118887,6.40104070899295,8.241200777723149,31.1375070955482,173.42934243097935,1757.787657030596,163474.1943624646,-1040.2038369831353,-8702.951498472972,-1099988.6697681558,0
1.247854932162807,0.9352056780900302,2.8952356123193086,0.4235875794423365,0.4317948938988123,1.0613080085602797,0.5508938176567318,0.4950385601657807,1.2136970527345816,0.20949517293910636,0.14582156751346767,1.1335974515577798,2.648575572821032,1.8447559143106176,4.906674938707069,4.54853824823079,3.35586611152521,7.644598987537062,0.31611934691756965,-0.0660488134137751,0.10211841706103394,0.12792224921547612,-1.1643323304275137,-1.2836103068877045,1.2478549321628067,0.9352056780900301,2.895235612319309,1.8606259300554517,1.119672836382842,9.855449786658575,-1040.2038369831353,-8702.951498472972,-1099988.6697681558,0
1.6739319273594757,1.4982679787201312,3.2683728460716064,0.7573124625244297,0.6100846010801019,1.242913172238987,0.9465055445026026,0.7523661462233456,1.5570978255045753,0.20949517293910636,0.14582156751346767,0.3539001481698327,5.561998504119459,3.482608168688641,7.635224474019327,4.54853824823079,3.35586611152521,7.644598987537062,1.020562549941613,0.27045943761238783,0.5271259613892586,1.6930838731324664,-0.3239786547313672,-0.08874548026023454,1.6739319273594757,1.4982679787201303,3.2683728460716077,3.6979208432075783,2.810861754041074,13.106814699129295,-1040.2038369831353,-8702.951498472972,-1099988.6697681558,0
2.9664594032662333,1.4448514000521353,3.860542968181871,1.3069212265740628,0.6648526513918741,1.7459048926633745,1.6487708291260375,0.8442717565197778,2.227625927923727,0.5477609627213521,0.05528919397984287,0.42941003140941386,8.077245513642056,3.8250789914274246,12.338416229360304,4.54853824823079,3.35586611152521,7.644598987537062,0.8915753754302247,0.7890226732645218,0.9571521262515842,0.2604046963746862,0.26044766945513453,1.5475400712012641,2.966459403266234,1.4448514000521353,3.860542968181871,11.518326638203623,2.800390367089607,19.866109283936538,-1040.2038369831353,-8702.951498472972,-1099988.6697681558,0
4.690061002957346,1.8638207742506177,7.705961340415929,1.7380546428509263,0.8282023103630947,2.6530079293738837,2.205637502328283,1.042765711536191,3.329777207376542,2.4311337117077825,0.4263071700394567,0.8179565669461992,9.961133959668661,4.48294486173488,13.483684629266362,4.54853824823079,3.35586611152521,7.644598987537062,0.9970331569246619,0.8377716590395885,-0.2765452960040233,-0.05505880147647524,0.32074584008826657,-0.45733794679772233,4.690061002957347,1.8638207742506179,7.705961340415927,26.861509003138224,4.561188207683751,70.46925643074916,-1040.2038369831353,-8702.951498472972,-1099988.6697681558,0
6.169806149289894,3.454909420918498,9.971953552899064,2.6735744801648504,1.2681521287976398,4.809004607415584,3.2461068476488784,1.5475102610782348,5.68488816329727,0.8825193821560323,0.3879734404159705,1.5498607187329414,13.974019214017455,7.894497159391213,21.696351950558512,4.54853824823079,3.35586611152521,7.644598987537062,0.5376491244497918,0.24372823046359893,0.5448458194155231,-0.38074170412808295,-0.15564986490875743,-0.8014201002994463,6.169806149289893,3.4549094209184985,9.971953552899066,48.603717586168315,14.331187114893822,131.75781109037374,-1040.2038369831353,-8702.951498472972,-1099988.6697681558,0
11.78929467656763,14.784326124041346,13.43594965485106,7.710508455545392,12.967545310229182,5.094214071041329,18.789340227958682,30.077644515152656,6.808617421120451,0.5042898675187875,0.9312401358044701,0.12589221999826886,180.861332946577,253.26747591326813,38.41848030886018,4.54853824823079,3.35586611152521,7.644598987537062,7.52246878686487,5.873038975156008,0.9290167821431089,64.07133701509709,39.76446421566834,1.60798147878634,11.78929467656763,14.784326124041346,13.435949654851058,492.0267751729322,1123.240998521904,226.88201431487715,-1040.2038369831353,-8702.951498472972,-1099988.6697681558,0
6.466612629062881,11.13081586224111,63.866188999856824,8.269488403856004,8.59200622836371,122.77860198649044,32.96499371926519,16.649163090485246,531.6969557978056,0.22947885880744762,0.7027865520396922,0.2490307645390154,286.84535236,106.44675402574084,4606.6744625,0.8785491376723902,2.058315636948486,1.3580597915122015,8.312788595899677,3.9498346629375374,8.42689109054792,67.72007349966493,16.8194433229376,69.01290593981338,6.46661262906288,11.13081586224111,63.86618899985679,1128.5078898055485,401.08969337269446,286780.54290201905,-1349.5956360473895,-790.3819655475238,-693400.5625255702,0
1.116671003424476,1.9498440158209813,1.7221733347384625,0.5441444522365274,0.8512913665823767,0.7935915240394578,0.6712388657416034,0.982849371301419,0.9994461746018393,0.013199945647755824,0.1801407145516261,0.10834988260870654,2.8227609710645716,4.049228362203464,4.430437236237926,0.8785491376723902,2.058315636948486,1.3580597915122015,0.7948583528726877,-0.025540267199854583,0.776125380104606,-0.006008196518083597,-1.04132234106713,0.24786213552546377,1.1166710034244756,1.9498440158209813,1.7221733347384625,1.6975157447710993,4.767884572700486,3.964773650810446,-1349.5956360473895,-790.3819655475238,-693400.5625255702,0
1.0324041513580915,1.3236408653415357,2.0969313387233384,0.3473622684944489,0.4631237281483866,0.7940036580367275,0.4134514985701188,0.5801048650142163,0.9763731935590402,0.21576302913268897,0.08169078046218121,0.43005583496187577,2.248249989128223,2.5220636945695754,4.903790464936765,0.8785491376723902,2.058315636948486,1.3580597915122015,0.2153327715548541,-0.10635708805299433,0.4430367442668234,-0.2634729156318314,-0.6557540763536069,-0.19886494248662023,1.0324041513580915,1.323640865341536,2.096931338723338,1.2368004734112978,2.0885467948152527,5.35042565242073,-1349.5956360473895,-790.3819655475238,-693400.5625255702,0
0.921587622039277,1.436397454380881,2.0716615953417983,0.4036973879077525,0.4167094206442047,0.8874058117557013,0.4894876107534725,0.49450393022404143,1.08168625676031,0.21576302913268897,0.5098587424724467,0.43005583496187577,2.248249989128223,2.5220636945695754,4.903790464936765,0.8785491376723902,2.058315636948486,1.3580597915122015,0.5617442253167035,0.08529412171215926,0.6494781265571608,-0.2943284576806926,-0.8606751422315626,-0.28898995989100795,0.921587622039277,1.4363974543808804,2.0716615953417974,1.0889218661771525,2.3077717839588976,5.461826923678253,-1349.5956360473895,-790.3819655475238,-693400.5625255702,0
1.2337701258849259,1.127399941269242,2.0505424307759155,0.48807960813881435,0.5140323831898195,0.8025936265554117,0.6254437463021338,0.6285630291096174,1.0082485771392018,0.03911634329811939,0.08169078046218121,0.10834988260870654,2.8227609710645716,2.510285199799275,4.430437236237926,0.8785491376723902,2.058315636948486,1.3580597915122015,0.5873076948523095,0.5612676882240581,0.4452414646508526,0.06060000808460142,-0.4497573195461637,-0.24987298057411067,1.233770125884926,1.1273999412692421,2.0505424307759155,1.9133686033145538,1.6661221091373486,5.221289453715626,-1349.5956360473895,-790.3819655475238,-693400.5625255702,0
1.0619770818647023,3.699137049539845,1.1894004766549429,0.5549552850702864,1.5867272122945235,0.5236666270786685,0.8526835192235331,2.006345439551238,0.6398078621777622,0.013199945647755824,0.7027865520396922,0.21994315934819025,4.096146769858311,10.618945835573768,2.875848282576731,0.8785491376723902,2.058315636948486,1.3580597915122015,2.231975424204633,1.2506463710026177,0.7506169507043784,4.799975722786612,1.153818489979889,-0.19135043627573012,1.0619770818647025,3.699137049539845,1.1894004766549424,1.854864506361299,17.70903693408639,1.8240275943714825,-1349.5956360473895,-790.3819655475238,-693400.5625255702,0
4.674115364304684,19.166927350201686,2.4568355225662883,2.7214708979205726,12.0053486659072,1.0150077169086744,4.055680573414167,20.428103540883445,1.5110582369410988,0.787866186508549,7.593215816544487,1.2586936734468297,20.61703220582621,106.44675402574084,7.672568052625355,0.8785491376723902,2.058315636948486,1.3580597915122015,2.3671269872016647,3.165034641805498,2.248549333759132,6.164130742563122,9.75370797220123,4.250005415628335,4.674115364304684,19.166927350201686,2.4568355225662883,38.295899352398166,784.6785183249644,8.319337780371109,-1349.5956360473895,-790.3819655475238,-693400.5625255702,0
8.843336258688398,10.99781785775859,64.40955744667906,10.178397877307033,12.78785344397238,123.49329955703676,22.930794767861197,34.935215488738315,527.6177423578902,0.3717190307395638,0.020398138053960905,0.11663771255774126,164.6473538184,287.52769517,4510.168341500001,1.0724914907311236,1.1516966607960502,1.4303123048647153,5.257737604861736,7.018147922645432,8.307314118516784,29.81238176798935,51.80310865011061,67.01236350536257,8.843336258688394,10.997817857758585,64.40955744667905,604.0259448700034,1341.4212788770149,282529.0731413142,-913.2003201628684,-1890.7636003445366,-676094.2562224809,0
1.0081734356155536,1.3617118538259498,2.1330004147683908,0.40549954313245207,0.4583911635356064,0.8074792004687904,0.4961547696446965,0.5567605776762045,1.0211714918907906,0.11055873008960777,0.16667383007177608,0.3224402198775931,2.140749135299117,2.466802788949139,4.998568440899045,1.0724914907311236,1.1516966607960502,1.4303123048647153,0.35874389163069226,-0.3069296626800847,0.6003477400586692,-0.5673648659869697,-0.7856973304502413,-0.0429313410656742,1.0081734356155538,1.3617118538259498,2.13300041476839,1.2625832317220513,2.164241513704446,5.592481985252585,-913.2003201628684,-1890.7636003445366,-676094.2562224809,0
1.2088294262076724,0.9785971114617835,1.6385319002333687,0.4099955669385464,0.33199565854359625,0.6064617284312833,0.48899987588854693,0.4100548716979854,0.77687468247879,0.18537975193152476,0.21556038792370746,0.11961314148217474,2.2051495361515854,1.8449469531659308,3.5778476410952926,1.0724914907311236,1.1516966607960502,1.4303123048647153,-0.10011997035423875,0.3456687826409234,0.27841965184405326,-0.8295352249040926,-0.6964317763243804,-0.04165165330953391,1.2088294262076722,0.9785971114617835,1.6385319002333687,1.7003894602845842,1.125797304364598,3.288321060358895,-913.2003201628684,-1890.7636003445366,-676094.2562224809,0
1.102380915025345,0.9782929796440245,1.9106290938307973,0.34808917920455495,0.30248710644224197,0.7348260380082832,0.42491962662763555,0.3872929943174823,0.9334282923137164,0.18537975193152476,0.21556038792370746,0.20440909970218699,2.0379304053793184,1.7986241097869617,4.02726353837205,1.0724914907311236,1.1516966607960502,1.4303123048647153,0.26930999889979584,0.36234545400886314,0.5426955450016426,-0.7568838998824718,-0.31818750510813976,-0.25866685414614254,1.1023809150253447,0.9782929796440247,1.9106290938307977,1.3958003709054851,1.1070530174681859,4.521791911084396,-913.2003201628684,-1890.7636003445366,-676094.2562224809,0
1.04827085584159,1.1409901115233598,2.122204588746892,0.44541104267133436,0.42003951083617064,0.8621622638796742,0.5323556188482914,0.4910557065578857,1.0935589668349346,0.11055873008960777,0.16667383007177608,0.11961314148217474,2.2051495361515854,2.155039374602585,4.998568440899045,1.0724914907311236,1.1516966607960502,1.4303123048647153,0.25141500293868313,-0.024607687755929395,0.32053321318449485,-0.8267382290941394,-0.9907044588740366,-0.2977309393799423,1.0482708558415896,1.14099011152336,2.1222045887468926,1.382274292126206,1.5429941415371538,5.699623530443457,-913.2003201628684,-1890.7636003445366,-676094.2562224809,0
1.7032439556675394,2.012140816176604,1.162356829782923,0.6518029762800355,0.8703950087751933,0.518325116991654,0.8055119832598041,1.1168156298420597,0.638890244465068,0.21749102571343876,0.020398138053960905,0.11663771255774126,3.8385012420263593,4.882449935155158,2.731875377031505,1.0724914907311236,1.1516966607960502,1.4303123048647153,0.3365846942536343,0.6847534821220724,0.6712460648084227,-0.4342946981392908,0.10690110337436742,-0.22881458062472637,1.7032439556675392,2.0121408161766037,1.1623568297829234,3.549889527693149,5.295987815183364,1.7592541442156426,-913.2003201628684,-1890.7636003445366,-676094.2562224809,0
17.011929138252153,18.174478007789176,3.6565426115014574,13.680064943485919,11.108499747819353,1.6166035577173525,21.094687484287586,16.965301220643756,2.3349260249331083,3.1062072362267394,4.344959283709585,1.6640472947545744,96.14517302682633,84.04359562411767,11.87935256446303,1.0724914907311236,1.1516966607960502,1.4303123048647153,2.6476206763530654,2.7091718497314297,2.2256868391021354,6.625675842702799,7.588125928931467,4.6578353358643145,17.011929138252153,18.174478007789176,3.6565426115014574,734.391573064672,618.1330963627889,18.822183411635823,-913.2003201628684,-1890.7636003445366,-676094.2562224809,0
7.127189800108604,25.229806346703235,64.73787362756151,7.249939678448489,36.60451398824327,119.60561734367882,17.75639974001426,134.40932018746855,511.0330457517994,0.08832560268990679,0.01809730894683625,0.7511345112000344,142.972961623,1146.7114866,4370.5400979999995,1.4232226249807631,0.6682037265045301,1.4442021890011358,6.408574641889075,8.071196682267065,8.30605541780169,44.96528396893675,64.32194032809123,66.99856471265242,7.127189800108602,25.229806346703242,64.73787362756156,366.08656617395064,18702.408481549588,265345.7661321787,-436.0147555309977,-33938.81354613124,-625476.1184456334,0
1.5088849194782419,0.4424481461069926,2.1690410924458297,0.6032657238427096,0.16164039001173067,0.7371723275157408,0.7205224842724497,0.200862700276342,0.9027397965999087,0.2846760033100121,0.028290339577389197,0.3279459282104993,3.2815775666712876,0.9939961252451106,4.465974485819682,1.4232226249807631,0.6682037265045301,1.4442021890011358,0.3902227177477452,0.4544379801561986,0.4494027476462849,-0.3964934137030478,-0.14572864106037953,-0.2196275034393098,1.5088849194782414,0.4424481461069925,2.16904109244583,2.795886350571002,0.2361061863558182,5.5196784010838424,-436.0147555309977,-33938.81354613124,-625476.1184456334,0
1.4451199638214487,0.3946380746264683,2.4300008165306948,0.6868168820773353,0.1703364375749688,1.1440654402781087,0.857892981849649,0.20517233940842158,1.462927510002472,0.0885406943037595,0.028486732141593498,0.15584037394539788,4.173459586931259,0.8534608139074167,6.476093686270414,1.4232226249807631,0.6682037265045301,1.4442021890011358,0.8472659381634589,0.07524526952487665,0.768062089630324,0.5812406781670969,-0.829546193588468,0.15711739809536018,1.4451199638214491,0.3946380746264683,2.4300008165306957,2.824352078142189,0.19783489880321053,8.045060867861878,-436.0147555309977,-33938.81354613124,-625476.1184456334,0
1.5131756995620642,0.49197059843683016,2.245862162224004,0.709019003806188,0.22497726954706826,0.8482572214562655,0.8769304679600322,0.2675918948552085,1.0947266847119934,0.0885406943037595,0.034477654262144566,0.15584037394539788,4.173459586931259,1.0503101020272916,5.901519899276198,1.4232226249807631,0.6682037265045301,1.4442021890011358,0.7327147965966293,0.12992148846941007,0.5117515086272053,0.21048706189609767,-0.8033327369266323,0.5575251259561278,1.5131756995620647,0.49197059843683005,2.245862162224003,3.0587077433817447,0.3136404919184936,6.242323365929987,-436.0147555309977,-33938.81354613124,-625476.1184456334,0
1.5166483744894876,0.39704874435321647,2.486220619758948,0.5819212982426868,0.15601923434380663,1.0781872895950086,0.703125160059242,0.18715473009479947,1.3448854610525696,0.22430674235155595,0.028290339577389197,0.3279459282104993,3.2815775666712876,0.7762455087083022,6.476093686270414,1.4232226249807631,0.6682037265045301,1.4442021890011358,0.35893526139865733,0.016442484169620332,0.794650161277165,-0.26059533281756586,-0.7340413078095804,0.34485537718801895,1.5166483744894876,0.39704874435321647,2.486220619758948,2.79460728254994,0.19267459838932313,7.99000987346515,-436.0147555309977,-33938.81354613124,-625476.1184456334,0
2.0704796045378577,1.486294341115223,2.0421374586360233,1.2006576845819739,1.0653024337406078,0.5182551712436747,1.746351664166035,1.1961835763532087,0.6308202998877261,0.08832560268990679,0.01809730894683625,0.7511345112000344,8.852942584638727,4.5225875028715325,3.586974630356428,1.4232226249807631,0.6682037265045301,1.4442021890011358,2.0178727083251373,0.6564502016810848,0.17869045235580114,4.204535040617872,-0.8188783538793101,-0.5041136538824995,2.0704796045378577,1.4862943411152232,2.0421374586360233,7.336629927742724,3.6399260167682876,4.568259650714835,-436.0147555309977,-33938.81354613124,-625476.1184456334,0
10.993405352364054,24.97600407726286,8.353601405647613,7.573622121356817,17.2444557807812,5.108707938611298,10.755181983172209,27.205923615381597,7.92951343215133,0.5227259973436267,3.1534783411604597,1.7404689854868638,44.115075408664495,129.03835481173,38.77422944798543,1.4232226249807631,0.6682037265045301,1.4442021890011358,1.7864530634290718,2.615885060635475,2.5469415059396696,2.4470321452403097,6.93186461595989,6.869236598741649,10.993405352364054,24.97600407726286,8.353601405647613,236.52890073253874,1363.963059433429,132.65983971510613,-436.0147555309977,-33938.81354613124,-625476.1184456334,0
8.636314778679276,16.21603372898422,64.83357606642966,11.338864829050143,20.210591212879628,122.76696133604256,34.211341143873646,52.30035608305037,531.6546289775195,0.6643957655481139,0.4412576186339521,0.08497063704909906,284.58995055820003,426.09960937000005,4607.2111455,1.264393639332721,1.0200837656334694,1.1479672809015864,7.265298624866414,6.718442530051959,8.426496740379624,54.59512199472472,48.4631568507164,69.00852862092151,8.636314778679282,16.2160337289842,64.83357606642963,1245.0017958189358,2998.2869963134162,286860.03709878545,-1692.296699392825,-5011.522832443227,-687263.9275478772,0
1.222338901366261,1.1712260411261264,1.2943581496360852,0.5621524384569043,0.4163714724848291,0.5823095883816675,0.675710461289503,0.482136281526104,0.7300833083919388,0.19117078035752608,0.1497627732349049,0.1843008033007061,2.996626261533448,2.2465550794496667,3.0962876271757347,1.264393639332721,1.0200837656334694,1.1479672809015864,0.6940938821988141,-0.13788797007499082,0.7796802801022341,-0.31623540004848705,-0.9784214848078658,-0.30509178328374187,1.222338901366261,1.1712260411261257,1.2943581496360854,1.9506970172893516,1.6042258333757957,2.208384656721869,-1692.296699392825,-5011.522832443227,-687263.9275478772,0
1.2296934033167748,0.8773539475829061,1.4447896848058572,0.5174557218810275,0.17965407476014517,0.5321053114874413,0.6261425637073851,0.23315586645951547,0.641957832430141,0.16294653264997266,0.2563193022562849,0.291148782436045,2.9253358781430543,1.3851656273594988,3.1689481085884332,1.264393639332721,1.0200837656334694,1.1479672809015864,0.4207453956809542,-0.37787121679055324,0.4489047111618055,-0.4143320704563247,0.025059947121800263,-0.14705499453536008,1.2296934033167748,0.8773539475829056,1.4447896848058568,1.9042003762468493,0.8241116074037955,2.4995270919398136,-1692.296699392825,-5011.522832443227,-687263.9275478772,0
1.450898952642288,0.7590683497374183,1.7904409848996572,0.47745806062456647,0.25082911105262357,0.7390599284542063,0.5858171256538235,0.3194325906195661,1.0276166570632266,0.2029234127175113,0.046152482697177304,0.291148782436045,2.9253358781430543,1.3851656273594988,5.108155144058124,1.264393639332721,1.0200837656334694,1.1479672809015864,0.036166938586770156,-0.273368178846344,1.3076873551800452,-0.4630050244724284,-0.3977420099605533,2.2274124309509435,1.450898952642288,0.7590683497374182,1.7904409848996576,2.4482894754877953,0.6782219395230149,4.261674914282256,-1692.296699392825,-5011.522832443227,-687263.9275478772,0
1.0531878592451587,0.9117045382736821,1.4284750136939015,0.43838834719937386,0.27899589697329225,0.5875573995937929,0.539842731904085,0.35266341179970767,0.7128953706880394,0.16294653264997266,0.2563193022562849,0.21806761140809142,2.3753873399494205,1.72926255537638,3.1508796098023044,1.264393639332721,1.0200837656334694,1.1479672809015864,0.5315198368183989,0.2731434637409073,0.5100521983008369,-0.5273719730659829,-0.3994031712615942,-0.559039637130597,1.0531878592451582,0.9117045382736821,1.4284750136939022,1.4006348420510653,0.955576647131038,2.548760674296231,-1692.296699392825,-5011.522832443227,-687263.9275478772,0
1.8679674748048316,1.5787905452094841,1.1566046291100192,0.7284198100634248,0.4907108211632329,0.38852462015013134,0.8447040280275229,0.6285200699133106,0.5297853457067885,0.19117078035752608,0.1497627732349049,0.08497063704909906,3.247420027218075,3.2101105367631013,3.0962876271757347,1.264393639332721,1.0200837656334694,1.1479672809015864,-0.19465309848659995,0.20222709410255157,0.915826638441649,-1.1568681066722333,0.14012334420307893,1.7230392086059556,1.8679674748048316,1.5787905452094837,1.1566046291100192,4.202827381894662,2.8876170639266916,1.6184067806043863,-1692.296699392825,-5011.522832443227,-687263.9275478772,0
7.454616543583596,19.696891958565722,4.031848130822357,8.338664324823554,17.04093006157295,2.758854198415317,15.742538831492626,26.983845236896027,4.0776333409032395,0.9164498672899144,2.0987322485042803,0.7066536448005113,87.0915540327093,140.4299023884321,19.651927929439143,1.264393639332721,1.0200837656334694,1.1479672809015864,3.9507972852979925,2.967494752349356,2.2875814860337296,16.019829236644828,9.325899868293504,5.028585716785734,7.454616543583596,19.696891958565725,4.031848130822356,303.39883667292344,1116.0954565961677,32.88289301286144,-1692.296699392825,-5011.522832443227,-687263.9275478772,0
6.696605654996438,14.755995538858778,67.41358562117664,7.754246087472053,15.387452643741298,128.8272817935891,15.966987003391441,26.116884780026773,538.9821097201502,0.29555664804744597,1.6219221198290434,0.17554443476693568,92.386016806644,172.30715952100002,4511.9548075,1.0875893761904847,2.344504150523795,1.5239837772447993,4.365117939972209,3.8510754854588414,8.124835522399069,19.237467381466118,17.752488581745606,64.01355373878889,6.69660565499644,14.75599553885878,67.41358562117662,299.78920126500157,899.8310749560142,295046.306124688,-448.7689075724712,-1593.5669037946084,-679895.4318017879,0
1.2449366729879257,1.9321473805726364,2.7134908500693093,0.43685441887663934,0.7892827773223241,1.0193918260859578,0.5258920078045524,0.9192932737132582,1.2325225926202399,0.14589787505807492,0.6112038206417861,0.22832858210851273,2.28215091559669,3.844903514136405,5.621352406257174,1.0875893761904847,2.344504150523795,1.5239837772447993,0.003408146537140872,0.43943602397889436,0.026408451872633708,-0.8241362846006477,-0.9720755092353257,-0.669707020715038,1.2449366729879254,1.9321473805726377,2.7134908500693102,1.8264297236229488,4.578293623348143,8.882144534729182,-448.7689075724712,-1593.5669037946084,-679895.4318017879,0
1.4032872436478663,1.517917010675668,1.3987585340748891,0.5495954810534084,0.6942407092699404,0.4999982909774298,0.6287009649769555,0.8133310793379872,0.6480930489700267,0.09312635813249172,0.061824057458420616,0.16602104564116052,2.4724628875330987,3.135934189065061,3.81525355221293,1.0875893761904847,2.344504150523795,1.5239837772447993,-0.17226707188939516,0.4891793183962742,0.8191717375391623,-1.0863834986517542,-1.0152939078514216,1.4363616791159295,1.403287243647867,1.5179170106756679,1.3987585340748898,2.3644799915477823,2.965579495915652,2.3765500367706003,-448.7689075724712,-1593.5669037946084,-679895.4318017879,0
1.4962355748942366,1.3744508535009563,1.6725991654812775,0.5889207157092309,0.5421851208848935,0.6489948917891669,0.6763732518956932,0.6548674442384297,0.8060262781378792,0.34589486161328103,0.061824057458420616,0.16602104564116052,3.068031005703125,2.9231466198394913,3.6612609512044627,1.0875893761904847,2.344504150523795,1.5239837772447993,0.047156148539058224,0.4480781908413738,0.5466355521245025,-0.8045996048660871,-0.44963617534119615,-0.3027027396302375,1.4962355748942366,1.3744508535009559,1.6725991654812775,2.696201671459041,2.317966518212879,3.4472663294174692,-448.7689075724712,-1593.5669037946084,-679895.4318017879,0
1.2712029332178847,1.5622578795313595,2.0630328769711044,0.49476866237327427,0.5247020525996876,1.0652134018601178,0.5801546520447041,0.6597271095570706,1.3135038727925905,0.09312635813249172,0.6112038206417861,0.22832858210851273,2.28215091559669,3.135934189065061,5.621352406257174,1.0875893761904847,2.344504150523795,1.5239837772447993,-0.012260165866428772,0.7359777169706238,0.9312619322080432,-0.9174150240943701,-0.36279390104033915,-0.10211896897204475,1.2712029332178847,1.5622578795313597,2.0630328769711044,1.9525363177108659,2.875889541242348,5.981397075304805,-448.7689075724712,-1593.5669037946084,-679895.4318017879,0
1.453934417179418,3.635398832839028,2.146964341962755,0.4903769736221132,1.1645895484736408,0.8731352719736803,0.6225293658579352,1.3840149935872457,1.0311135912742484,0.14589787505807492,1.5769001640135218,0.17554443476693568,2.9115610297800134,7.06088936479123,4.565058074896255,1.0875893761904847,2.344504150523795,1.5239837772447993,0.3170620584663146,0.5419853367683899,0.30354739097492717,-0.2517741329330816,-0.7517315665143576,-0.8029968290062848,1.4539344171794177,3.6353988328390283,2.146964341962756,2.501468100814336,15.131622176281674,5.672651123770048,-448.7689075724712,-1593.5669037946084,-679895.4318017879,0
10.839924578337575,24.07390287379405,2.9736572766238862,10.37611664534603,19.80123632099558,1.8206227017694132,17.66177757518645,23.41140139712497,2.053551569798341,0.29555664804744597,2.653286366249081,0.4960796967791841,87.95949998260886,84.58981847007901,6.872395722630089,1.0875893761904847,2.344504150523795,1.5239837772447993,3.1873750910346055,1.1682771132736611,0.7377862910916405,10.481107364376932,0.05089094724703669,-1.0131756385617916,10.839924578337575,24.07390287379405,2.9736572766238862,429.44235197940594,1127.6465149541743,13.05971164863942,-448.7689075724712,-1593.5669037946084,-679895.4318017879,0
7.650230275143901,12.534206816739747,64.03641206008808,6.131168315942997,14.896628504680955,121.99876655388645,12.143934261587779,51.60000876415237,521.2315941498597,0.5717682816710383,0.5920677421646715,0.10272438046962643,90.81679225161791,441.34669511000004,4455.992008,1.7532725833808147,1.390548539549533,1.4585276344072162,4.979846787250424,7.973676537613211,8.307355627494413,28.98126992753091,63.24839280088008,67.01281740798358,7.650230275143901,12.534206816739749,64.03641206008804,206.00116261249386,2819.667244985407,275783.0368095334,-398.32478125254266,-4077.4990962452553,-664742.0064945178,0
1.6654057498691832,1.3491230006842447,2.2794120604355466,0.6720469338676366,0.5552590608045391,0.7447736599404757,0.7967417392173434,0.7057942653137679,0.8909503508116933,0.13296911887211826,0.3159325131745022,0.6126275617031901,3.197937100552278,3.3199407258009317,4.203268528641269,1.7532725833808147,1.390548539549533,1.4585276344072162,-0.29891976831087713,0.9760637540690135,0.15748911244157243,-0.9776542975058486,0.5727046932896043,-0.8631023326352425,1.6654057498691832,1.3491230006842447,2.2794120604355452,3.408373710708413,2.3182784159250622,5.989511868870497,-398.32478125254266,-4077.4990962452553,-664742.0064945178,0
1.1496244432350575,1.4229175492479342,2.210191386946873,0.46765302321868496,0.46391090232470944,1.0000583791869535,0.5805767485971952,0.5658960003315977,1.1638935267801982,0.04839844078124928,0.3115135999555809,0.23856992324413842,3.0319057368758284,2.6410676414852294,4.812514258319031,1.7532725833808147,1.390548539549533,1.4585276344072162,0.6513296737593868,0.4085896699012577,0.33131011187613835,0.6081226025527626,-0.5596496215363667,-1.030207008388755,1.1496244432350575,1.4229175492479347,2.2101913869468732,1.6587057214952066,2.3449326351490476,6.239594108614992,-398.32478125254266,-4077.4990962452553,-664742.0064945178,0
1.32990821355303,1.3611728461739012,2.054726043169705,0.5035540489444809,0.3238901724455182,0.7698885356439773,0.64424137214952,0.3968576741425449,0.965536226612827,0.04839844078124928,0.3115135999555809,0.4321605344272536,3.0319057368758284,2.2760641593913884,4.352763315401379,1.7532725833808147,1.390548539549533,1.4585276344072162,0.6206460391674814,-0.1541920828771636,0.7066371073825971,0.3712161702815444,-0.29995071075899693,-0.3307830075767253,1.32990821355303,1.361172846173901,2.054726043169706,2.1837028020649076,2.0102875306869885,5.154159317381573,-398.32478125254266,-4077.4990962452553,-664742.0064945178,0
1.586581722997826,1.3545794597502447,2.3452074629306665,0.6341255762144429,0.5327517635816886,0.9149594395807599,0.7470095492613408,0.6323336693621654,1.0751314166125159,0.3023398765561278,0.3159325131745022,0.23856992324413842,3.197937100552278,2.661468008405429,4.812514258319031,1.7532725833808147,1.390548539549533,1.4585276344072162,0.013580466894620153,0.5291643365840027,0.0014518730391246423,-1.0315508622261442,-0.777602109843146,-0.9039048283447855,1.586581722997826,1.3545794597502447,2.3452074629306665,3.0752648304383814,2.2347313821862844,6.655905607172928,-398.32478125254266,-4077.4990962452553,-664742.0064945178,0
2.588199012051215,2.312217817471118,1.9248196379365887,1.5416974635776557,1.1575551160630784,0.5867981797846622,1.7872987928737856,1.3989669406135863,0.7391898055860349,0.13296911887211826,0.3369776551941711,0.21327571594705197,5.67527956426998,6.917507375426803,3.595554037569092,1.7532725833808147,1.390548539549533,1.4585276344072162,0.3713778064531222,0.8399666767026283,0.16985201310599005,-1.2471944694670047,0.2232529870022777,-0.1893025383749123,2.588199012051216,2.3122178174711183,1.9248196379365883,9.89321110099098,7.3034597363606375,4.25133220726866,-398.32478125254266,-4077.4990962452553,-664742.0064945178,0
14.812800366701879,13.085845696819506,2.9073662263808044,10.810783428780244,7.927155910355091,1.595087566785492,17.91006425160879,11.35637810189747,2.2829666078389605,2.6807449124728735,1.7469941264993982,0.10272438046962643,90.81679225161791,47.631242649624845,9.862375039759682,1.7532725833808147,1.390548539549533,1.4585276344072162,3.067889483666871,1.7161489495468183,1.3941817605945324,9.81643175806308,2.25281405975627,1.8310199493381516,14.812800366701879,13.085845696819502,2.9073662263808044,540.1894562005184,300.2066811942259,13.66471490680749,-398.32478125254266,-4077.4990962452553,-664742.0064945178,0
6.486640059812377,18.19263610149225,40.122016551255385,4.212690045975985,23.662987539578506,69.44217295342393,11.634166458647842,93.54926833219608,586.7978816361974,0.17295240588992727,0.27496068938293505,0.24288538533376924,169.95085188103,1382.8214433841,9928.772755499998,4.18140601967745,2.3428253933954943,3.223884423188693,10.580838338389254,12.23838014595962,16.791715520790003,137.4296413338592,164.92732860317395,279.97571331938224,6.486640059812371,18.19263610149225,40.12201655125533,177.4303284530891,9082.437613810544,345941.5301048678,-437.60737082185557,-36993.63899157792,-1589163.0149874701,0
1.0768436129672057,1.0513083045518985,2.056058271676226,0.4742233254535963,0.40836891086552596,0.8764584266314716,0.5969860964818933,0.503942288674575,1.0735633026301103,0.0668888963430097,0.07205662983814645,0.03533130003153409,3.43658611242956,2.515708025305054,5.3385532019220525,4.18140601967745,2.3428253933954943,3.223884423188693,0.8533451178783091,0.5371491190015163,0.4733021842469001,0.585960791608457,-0.19681606451843736,-0.31650618757339055,1.0768436129672059,1.0513083045518985,2.0560582716762243,1.5159845661809535,1.359206981534356,5.379913781282292,-437.60737082185557,-36993.63899157792,-1589163.0149874701,0
2.0159140172879684,1.3503085477507584,2.043941718856501,0.76698507774795,0.4944588131162402,0.8249465766511155,1.0085867038801188,0.6324520216800085,1.038052132352437,0.0668888963430097,0.4051726219061896,0.1510070495791692,4.665136720532448,3.9874554791555417,5.3385532019220525,4.18140601967745,2.3428253933954943,3.223884423188693,0.5846302338920276,1.0926983219170645,0.552490391784496,0.3292654456384545,2.312311003237954,0.38199776673969765,2.015914017287969,1.3503085477507584,2.0439417188565003,5.08115646434188,2.2233287338558916,5.255249979563505,-437.60737082185557,-36993.63899157792,-1589163.0149874701,0
2.9864394119787674,2.297894979322526,3.9545629118004544,1.2793569791145414,0.8339284460466737,1.526385584004609,1.6998180084615921,1.0128284370382803,1.898981258871056,0.21534030142112395,0.27496068938293505,0.5856562304580358,9.657749538094738,4.567269180927773,9.18434517884965,4.18140601967745,2.3428253933954943,3.223884423188693,1.1725207907314588,0.2351854078933051,0.4637380009013101,2.065691009382423,-0.5979851829926073,-0.04022683552206496,2.9864394119787665,2.2978949793225265,3.9545629118004544,11.808201623310415,6.306142778869081,19.244697644931193,-437.60737082185557,-36993.63899157792,-1589163.0149874701,0
5.450178057593831,2.752530417494597,4.510918641795041,2.349918832401081,1.09164181957404,1.9746956486507796,2.835054518178945,1.4065094817116952,2.483389653020985,0.17295240588992727,0.5881444737330923,0.24288538533376924,12.176035618618462,7.050552229542344,12.620821736597259,4.18140601967745,2.3428253933954943,3.223884423188693,0.21681295925417482,0.8237575222342784,0.9667304285380268,-0.6769055002736311,0.45475486218889616,0.8405470306752831,5.450178057593831,2.752530417494595,4.5109186417950395,37.74197498052411,9.55469262137787,26.515611161625706,-437.60737082185557,-36993.63899157792,-1589163.0149874701,0
7.220459648399068,10.458987632263867,6.733727540380882,2.684725002105952,5.549381990974854,2.848971881987465,3.510367789721577,6.543518318549374,3.549560408721489,1.274699173669199,0.46728961901610355,0.7016816280653186,17.15454227558551,25.09237880609182,15.735866806601905,4.18140601967745,2.3428253933954943,3.223884423188693,0.5337968797292642,0.3389432240866568,0.5630784847616768,0.07537894874526829,-0.919412143647441,-0.17437160498061788,7.220459648399068,10.458987632263867,6.7337275403808805,64.45771955327395,152.20805427703976,57.942465683247,-437.60737082185557,-36993.63899157792,-1589163.0149874701,0
12.173186028540465,69.44647996733893,9.002838626222413,9.265774416943211,58.269915504197705,4.241099423538114,14.043977232967617,112.48771738907823,7.297988038607274,0.527881975965994,2.657023402272072,1.2671870901334854,64.13355259999464,680.509758889267,46.980923465419146,4.18140601967745,2.3428253933954943,3.223884423188693,2.381667466474796,4.364673919280293,3.5828424576014344,5.094979999706506,20.235373157358527,16.479907333634056,12.173186028540464,69.44647996733893,9.002838626222413,345.4197546055655,17476.30014325914,134.31173274145712,-437.60737082185557,-36993.63899157792,-1589163.0149874701,0
20.651363826459146,13.485862814822562,37.83388674952456,22.544225130683195,14.28816647291461,52.97346836839018,203.54957583316923,68.71244774772363,694.543500552199,0.10138615516203056,0.021852113710742048,0.5069280475568602,5354.848358869999,1736.7950117391003,18541.1635542,9.54582149408534,5.9685955064280565,9.963368943592123,25.424326488245494,22.42250734604413,26.593862986556967,660.7970530834496,554.1725228749511,705.4874345060172,20.651363826459125,13.48586281482257,37.83388674952448,41858.90864975588,4903.268971343864,483822.07714587817,-215805.13564449956,-21793.395435189115,-3009841.109975166,0
1.816846995189995,1.8376429840324267,2.9634952196166924,0.8492221113370751,0.8653161637910403,1.3457317869467322,1.1472116388727025,1.0987105297749993,1.8375782568645402,0.05677693519626125,0.12880765247377882,0.19073121058277437,8.681704521266651,7.096293144512008,12.206985713944501,9.54582149408534,5.9685955064280565,9.963368943592123,1.5258806262885052,1.0843110127231488,1.5717472547992568,3.7260700331525722,1.3733902816906607,3.567598528945192,1.8168469951899966,1.8376429840324258,2.9634952196166933,4.617027548295911,4.584096565002058,12.158997766792314,-215805.13564449956,-21793.395435189115,-3009841.109975166,0
7.998149943452144,4.994475329549868,9.121589386035033,3.8516644647946627,2.130941790300762,4.084106183603493,4.836847968068315,2.5784339471165776,5.182190431511287,0.18840561926840532,0.021852113710742048,0.6850514660496123,24.29144462396485,12.519563440559581,29.642927667835824,9.54582149408534,5.9685955064280565,9.963368943592123,0.8736634919657348,0.3422711120773169,0.9264424053746748,0.6651136642473321,-0.3616266403560142,0.7584811048184288,7.998149943452144,4.994475329549868,9.121589386035033,87.36550078415007,31.59310543712543,110.05849059587409,-215805.13564449956,-21793.395435189115,-3009841.109975166,0
13.616669764737598,6.092943953489822,19.87641167484185,5.504060435713352,2.5192839122121,8.296201939310727,6.202010082642532,2.9905686210594093,9.899058070605244,3.483832675096802,1.0772168833974565,1.9007825090365305,26.594887806456416,12.44809742480487,43.175579775091144,9.54582149408534,5.9685955064280565,9.963368943592123,0.13902538517028332,0.3282600895338312,0.3918310023726946,-1.033451034362433,-0.7683111431490453,-0.6162806327042754,13.6166697647376,6.0929439534898195,19.876411674841844,223.87862454711876,46.06746669763332,493.06309175300413,-215805.13564449956,-21793.395435189115,-3009841.109975166,0
16.354020589006883,6.369595578423445,15.05397209553624,6.589995587823715,2.72013158903276,5.253540285453192,7.812544960438205,3.2199166746749466,7.048557247895907,3.4847416723831577,1.1650404880286453,2.4671422865825745,37.54525522821976,13.799049727653374,35.454091003876854,9.54582149408534,5.9685955064280565,9.963368943592123,0.5407246137117534,0.4413142084324341,0.6213603582516561,-0.3429019208060913,-0.530081454312449,0.51894707962721,16.354020589006883,6.369595578423445,15.053972095536242,328.4898481845293,50.93961122452126,276.3042351300497,-215805.13564449956,-21793.395435189115,-3009841.109975166,0
18.231064030175435,17.802306496219117,17.876350294507898,8.991314283037516,9.318156966997872,7.90120602387164,11.25499337984759,13.73500582167516,10.150724329138018,1.40554250045832,1.506849967310609,1.790373525227722,51.73495016668082,87.0589214332118,51.363347740697705,9.54582149408534,5.9685955064280565,9.963368943592123,0.8916507479021184,2.303568113634011,0.9125028492897995,0.34200501035347086,6.917543798956384,0.891417508012573,18.231064030175435,17.802306496219117,17.87635029450789,459.0465716527698,505.57250150677595,422.60110425810683,-215805.13564449956,-21793.395435189115,-3009841.109975166,0
113.75187561619029,119.76217416990501,31.211351763879854,91.99064016114538,42.021023688775074,26.22080801681928,180.94214574763706,56.82783633194673,55.1135096094035,17.778812035480243,64.44133693370847,2.551359617620841,891.3840721447597,284.65208695436934,271.44658417432464,9.54582149408534,5.9685955064280565,9.963368943592123,3.7474344396107613,1.6440615450079306,3.921257806545736,13.269758761725981,1.950590481477101,14.20721191689237,113.75187561619029,119.76217416990501,31.211351763879854,45679.549313960364,17572.381344073186,4011.647420394458,-215805.13564449956,-21793.395435189115,-3009841.109975166,0
12.671040082360692,9.248989510242842,34.39144703150192,13.700182214420149,11.022949869143902,52.531394113658195,82.23416759551125,29.67763495603592,405.24853588419245,0.0865853116112429,0.23139839981251697,0.3444115848868367,1263.1327512999999,366.9552117912722,6259.361649499998,4.4996782268668785,2.5237483073182694,6.122300240026327,14.854520056901745,8.569211573970719,15.29291852573782,222.62130573614186,90.86521960643617,231.91729119281842,12.671040082360694,9.248989510242845,34.391447031501926,6923.013576895422,966.3058235443073,165409.14746520226,-28990.19054622393,-6380.416502861508,-944132.9782103144,0
2.7282468737226813,1.7372403907048775,3.5033912527316584,1.2225700109253033,0.6062621992409816,1.3104398466790967,1.4093564594221808,0.7681773009185849,1.5492322766934934,0.41462019411462614,0.5548355138181437,0.6508631067173725,5.222510657810952,3.6871633403519324,6.893168678897769,4.4996782268668785,2.5237483073182694,6.122300240026327,0.3305843037854494,0.7295914094268054,0.26191094098091167,-1.0800151540164358,0.10737543701137575,-0.7363365560766013,2.7282468737226813,1.7372403907048775,3.5033912527316575,9.429616633692612,3.6081005407429974,14.673870916865601,-28990.19054622393,-6380.416502861508,-944132.9782103144,0
2.25479511735853,1.622342924922594,3.5214369426783394,0.8480047263432733,0.8630144615965414,1.29934844031189,1.0300765721132368,0.9783872001807483,1.5059649746915678,0.24397462535170802,0.08485777849543599,0.3015165809275931,4.481285488347294,3.401455125709021,6.361384178111452,4.4996782268668785,2.5237483073182694,6.122300240026327,0.2706758713632761,0.11012162502027197,-0.014079751390241658,-0.26697264001666365,-1.1448571645642052,-0.6540770126220865,2.2547951173585297,1.622342924922594,3.5214369426783394,6.145158765680422,3.589238079523921,14.668448646257549,-28990.19054622393,-6380.416502861508,-944132.9782103144,0
2.493447772327494,1.4098088965358857,3.2707316925594614,1.0191586552495278,0.6356010167430836,1.3612814375367104,1.3006277463644182,0.7792105658975006,1.6242238022492432,0.0865853116112429,0.08485777849543599,0.3015165809275931,6.839880475236319,3.9436990653095214,8.093940941625718,4.4996782268668785,2.5237483073182694,6.122300240026327,0.9071456321325276,0.7810968273960656,0.12601556000610162,0.8010561600540309,0.3324324360358091,-0.5296765374260235,2.4934477723274946,1.4098088965358853,3.2707316925594614,7.908914327937931,2.5947302307580333,13.33578876450587,-28990.19054622393,-6380.416502861508,-944132.9782103144,0
3.342756833176836,1.8846080171230892,4.620360373007668,1.5352090993318235,1.1029438379274765,2.1023256879675345,1.868391152040636,1.2286612444407097,2.4931461837745217,1.1568463256046624,0.23139839981251697,0.8834663382891248,8.450616065887154,4.465013432702579,10.255072335658271,4.4996782268668785,2.5237483073182694,6.122300240026327,0.9441318545459823,0.3917226787595342,0.502507640950198,0.1757511913294767,-1.0290388801367727,-0.5965198676060912,3.342756833176837,1.884608017123089,4.620360373007667,14.664908742774164,5.061355831795214,27.56350787012902,-28990.19054622393,-6380.416502861508,-944132.9782103144,0
6.061477832619581,2.996234790659128,8.439666561576797,2.939969639981448,1.4847809755966048,4.37773059706802,3.764513391130867,1.8904318782757659,5.5422048494326335,0.6106378282519698,0.3173596747127092,0.8011580534973225,20.195404566848023,8.858216431601601,26.860327687203306,4.4996782268668785,2.5237483073182694,6.122300240026327,1.1062931671630145,1.0037994763775009,1.073260390434375,1.1647809925679073,0.4643889875983729,0.8807669797265594,6.061477832619581,2.9962347906591273,8.439666561576798,50.91307458734218,12.551155607157387,101.94400626367214,-28990.19054622393,-6380.416502861508,-944132.9782103144,0
17.633257486147716,38.810952269463336,11.619473197687665,14.029367135058866,36.15895732005999,4.666470022373351,24.905343115801852,62.29679569585353,5.5043049367343775,2.161371917520791,2.207033789925771,1.0878673025866878,143.39681122934246,366.9552117912722,24.2620930339136,4.4996782268668785,2.5237483073182694,6.122300240026327,3.6239205788725424,3.8686978526412705,0.27413698512097195,14.302880215599341,16.746701041027656,-0.6437894361629395,17.63325748614772,38.810952269463336,11.619473197687665,931.2078852886032,5387.180770033476,165.3095302283404,-28990.19054622393,-6380.416502861508,-944132.9782103144,0
1.8038828938489006e+24,7.811890256760304e+23,5.6056009666685385e+25,9.472761786584653e+23,9.207938220485657e+23,4.906099285604177e+23,1.57750085538354e+24,2.1014271342876872e+24,1.5392049424434237e+24,8.999457812460666e+21,6.236663734380318e+20,5.427319118292776e+25,1.8217751143582837e+25,2.095145372454463e+25,7.6870799801873565e+25,1.4476710508101832e+24,3.1229424461588105e+23,5.829848283673637e+23,5.709961815578154,6.186943262446078,11.965484453371165,54.65060170698263,46.79609874204318,159.3960138799433,1.8038828938488987e+24,7.811890256760306e+23,5.605600966668541e+25,5.7425024434564777e+48,5.0262522945572254e+48,3.1446453716063704e+51,-5.954692360956324e+50,-4.703967631791918e+50,-5.361768153056553e+53,0
4.841862583894407e+23,2.0926513714642944e+23,5.588042984405564e+25,2.028582788257227e+23,1.3393779002912966e+23,3.6701780163079604e+23,2.550552778779049e+23,1.7081787116401115e+23,4.339346398837729e+23,4.338469128673378e+22,7.066260255545961e+21,5.499132350136239e+25,1.106068351381549e+24,7.717503048015963e+23,5.660428530416343e+25,1.4476710508101832e+24,3.1229424461588105e+23,5.829848283673637e+23,0.4377416955679108,1.2447784520392575,-0.1734660254614745,-0.3949893958507551,1.594045749758867,-0.8756745068031551,4.841862583894407e+23,2.0926513714642947e+23,5.588042984405564e+25,2.994895275865416e+47,7.297064273391864e+46,3.1228107388281147e+51,-5.954692360956324e+50,-4.703967631791918e+50,-5.361768153056553e+53,0
4.861698436955195e+23,3.0295349303733866e+23,5.589987947356671e+25,2.421675145106326e+23,1.4138083850851483e+23,3.1446537252811036e+23,2.995946603620509e+23,1.7260472206071682e+23,3.798204776952139e+23,3.795836311382853e+21,1.2443697219820017e+22,5.499132350136239e+25,1.3306771500178157e+24,7.717503048015963e+23,5.691044785878391e+25,1.4476710508101832e+24,3.1229424461588105e+23,5.829848283673637e+23,0.6719294353055687,0.19133974899400916,0.2230386580944674,-0.08202180497065958,-0.594383272051699,-0.004002060185694933,4.861698436955195e+23,3.0295349303733866e+23,5.589987947356671e+25,3.261180774363785e+47,1.2157320902118206e+47,3.124940788754561e+51,-5.954692360956324e+50,-4.703967631791918e+50,-5.361768153056553e+53,0
4.024589478422113e+23,1.5789140805488694e+23,5.597352679298563e+25,1.7717847834912533e+23,1.0246961860307974e+23,2.6651023160061905e+23,2.227488472854129e+23,1.1982044214777057e+23,3.244955099035417e+23,8.999457812460666e+21,7.066260255545961e+21,5.526136020224417e+25,1.01665294040137e+24,4.1805865434192595e+23,5.6618734622798155e+25,1.4476710508101832e+24,3.1229424461588105e+23,5.829848283673637e+23,0.5977155563491063,0.5736599653210945,-0.18313842335990263,0.15519624131383614,-0.704320277343994,-0.42542826894056773,4.024589478422114e+23,1.5789140805488694e+23,5.597352679298564e+25,2.1159025366524004e+47,3.9286635094042043e+46,3.1331409989810287e+51,-5.954692360956324e+50,-4.703967631791918e+50,-5.361768153056553e+53,0
1.3192908979269972e+24,2.277497941973132e+23,5.596054650763058e+25,3.2621398051941634e+23,1.4186168050412053e+23,3.315034659650419e+23,4.1363875776848806e+23,1.6334850861046495e+23,4.3594728987380014e+23,1.177963376395591e+23,6.236663734380318e+20,5.428193977135048e+25,2.3162766196133436e+24,6.340404015499752e+23,5.6869458684012105e+25,1.4476710508101832e+24,3.1229424461588105e+23,5.829848283673637e+23,0.07476019467468827,0.48557288368511475,-0.4165659229525712,0.09099299357000179,-0.6749736350441888,1.310517375217933,1.3192908979269972e+24,2.2774979419731313e+23,5.5960546507630605e+25,1.9116254952812802e+48,7.855270402218164e+46,3.131772815472236e+51,-5.954692360956324e+50,-4.703967631791918e+50,-5.361768153056553e+53,0
2.499994847880767e+24,5.4248453322937123e+23,5.598624636845927e+25,3.057757279284868e+23,3.39755065640329e+23,5.385902651845677e+23,3.6434307066797155e+23,4.2982483816377875e+23,6.542939113863038e+23,1.8415935521375548e+24,1.206108625428431e+22,5.427319118292776e+25,3.44547057666531e+24,1.825967359662443e+24,5.7097355337697055e+25,1.4476710508101832e+24,3.1229424461588105e+23,5.829848283673637e+23,0.18399693467630482,1.0298548725948136,-0.34503484265309114,-0.39531208080695723,0.46918191474283244,-0.37872303311749356,2.4999948478807676e+24,5.4248453322937123e+23,5.598624636845927e+25,6.382720112574148e+48,4.790388602956071e+47,3.134887882952295e+51,-5.954692360956324e+50,-4.703967631791918e+50,-5.361768153056553e+53,0
3.9139407218925567e+24,3.6847286494430287e+24,5.583376627449745e+25,5.630451569570209e+23,2.5749163550410825e+24,5.577532688834401e+23,6.611069298697325e+23,3.174622643250952e+24,6.753988899192015e+23,2.702147159600571e+24,2.5708288434568047e+23,5.435404578450624e+25,5.071472033391824e+24,1.2455498064107415e+25,5.707718668989775e+25,1.4476710508101832e+24,3.1229424461588105e+23,5.829848283673637e+23,0.09098150236015713,1.2514770111084306,-0.5211573575837449,-0.9544703280288185,0.854538634567914,-0.5351717662161075,3.913940721892558e+24,3.684728649443028e+24,5.583376627449745e+25,1.5755994347210616e+49,2.36554541470679e+49,3.117865620055713e+51,-5.954692360956324e+50,-4.703967631791918e+50,-5.361768153056553e+53,0
3.168606795887578e+24,1.3792294395983554e+24,4.696486641672193e+25,1.043574802632481e+24,9.298582582417663e+23,4.447123258325765e+23,1.9941726126334463e+24,1.603315885468786e+24,1.3998271822230097e+24,9.275407860713852e+23,8.210165612500652e+21,4.514100787686582e+25,2.2560512865063014e+25,1.4916791018223234e+25,6.381257347412896e+25,7.55804950365014e+23,8.519868263556789e+23,3.9126448222821786e+23,6.002460643355397,4.407357291393901,10.22453069088285,51.13383417500668,29.542129079338956,118.48160792949399,3.168606795887576e+24,1.3792294395983557e+24,4.696486641672193e+25,1.401679343592224e+49,4.4728956756513514e+48,2.207658193680626e+51,-1.5913212706975878e+51,-4.360708798304145e+50,-3.7541892559733584e+53,0
2.435183074232319e+24,1.440612270575197e+24,4.6926178130604275e+25,1.525529052775461e+23,7.4552162390099095e+22,1.185811474518968e+23,1.840285617384798e+23,9.624996350338718e+22,1.4594824732448335e+23,2.0857090989246148e+24,1.2544278943948223e+24,4.669751385817091e+25,2.7350561006818146e+24,1.6158957668760068e+24,4.716950776232896e+25,7.55804950365014e+23,8.519868263556789e+23,3.9126448222821786e+23,-0.27728127902712185,-0.11962052002433485,0.0140639052130977,-0.5879433557564222,-0.1199856945175033,-0.9363430593373199,2.4351830742323187e+24,1.440612270575197e+24,4.6926178130604275e+25,5.963983116563103e+48,2.0846277696062272e+48,2.2020874948361003e+51,-1.5913212706975878e+51,-4.360708798304145e+50,-3.7541892559733584e+53,0
2.1718465093828606e+24,6.787058978586551e+23,4.68926600514488e+25,2.4543245247951806e+23,2.995532909772342e+23,1.8952519844176494e+23,3.0276544543710695e+23,3.6506651435739556e+23,2.4206028233802048e+23,1.6328559769867795e+24,2.2571005907442004e+22,4.626068293232752e+25,2.8651212151197663e+24,1.5173287021358257e+24,4.735040945791945e+25,7.55804950365014e+23,8.519868263556789e+23,3.9126448222821786e+23,0.3680478576757873,0.22340748869324575,-0.07810212650766274,-0.6303941619883595,-0.618643224144583,-0.2926051694973708,2.1718465093828595e+24,6.787058978586553e+23,4.68926600514488e+25,4.808584175269243e+48,5.939152556931821e+47,2.198980159881028e+51,-1.5913212706975878e+51,-4.360708798304145e+50,-3.7541892559733584e+53,0
2.4759081696724536e+24,4.827638049837056e+23,4.684399013695046e+25,1.9901428281976413e+23,1.9452123611895404e+23,2.2327054026205724e+23,2.2940557640821747e+23,2.3137503203436154e+23,2.581417981697524e+23,1.9423665817169418e+24,8.920722578448017e+22,4.626068293232752e+25,2.8651212151197663e+24,1.0034538567378177e+24,4.732648806388434e+25,7.55804950365014e+23,8.519868263556789e+23,3.9126448222821786e+23,-0.22864863846240613,0.33840497392691254,-0.3181370257839434,-0.7330211636258661,-0.6200850976416197,-0.7876676557141895,2.4759081696724536e+24,4.827638049837057e+23,4.684399013695045e+25,6.182748183137986e+48,2.865952968512473e+47,2.1944260491386734e+51,-1.5913212706975878e+51,-4.360708798304145e+50,-3.7541892559733584e+53,0
2.327476099003173e+24,9.290219507577556e+23,4.689123786326545e+25,2.896548612444207e+23,3.076579073340284e+23,1.5239312021109596e+23,3.6033851352844156e+23,3.7221363955207815e+23,1.999828977467722e+23,9.275407860713852e+23,9.77409078604945e+22,4.6281040801361825e+25,3.0839155910565395e+24,1.6158957668760068e+24,4.759414899363686e+25,7.55804950365014e+23,8.519868263556789e+23,3.9126448222821786e+23,-0.6121625235076126,-0.4894120873615096,0.10319913623949065,0.9124463319439551,-0.4996846050934036,0.8800898704090891,2.3274760990031728e+24,9.290219507577559e+23,4.6891237863265445e+25,5.5469888357629136e+48,1.0016247784583507e+48,2.1988281815087306e+51,-1.5913212706975878e+51,-4.360708798304145e+50,-3.7541892559733584e+53,0
2.645540910414879e+24,8.764490336684821e+23,4.689689669736729e+25,5.861181646648702e+23,5.3387899553743806e+23,3.123781834313968e+23,7.18426321828463e+23,6.059793756713675e+23,4.1120447445751626e+23,1.0866598465152353e+24,8.210165612500652e+21,4.562221302393873e+25,4.0783411197921577e+24,2.0961871474406958e+24,4.789462614104713e+25,7.55804950365014e+23,8.519868263556789e+23,3.9126448222821786e+23,-0.12545762828158494,0.21843068992458486,-0.3150894923908342,-0.6184004444255291,-1.2412992756172463,0.6708673280345456,2.645540910414879e+24,8.764490336684821e+23,4.6896896697367294e+25,7.51502308857476e+48,1.1353739123574763e+48,2.1994880089633518e+51,-1.5913212706975878e+51,-4.360708798304145e+50,-3.7541892559733584e+53,0
4.868766743419384e+24,2.999650055370677e+24,4.681753363718406e+25,1.1448336805261299e+24,1.159024880896885e+24,6.679342298923885e+23,1.6758760510397513e+24,1.519611421611184e+24,1.0333086283886539e+24,3.115664751083109e+24,1.1849806503883394e+24,4.514100787686582e+25,1.1756797941469817e+25,8.307023334556586e+24,5.183645586286858e+25,7.55804950365014e+23,8.519868263556789e+23,3.9126448222821786e+23,2.130022440479432,1.2553548671184724,2.876542993747503,5.676838846215556,2.012193365854187,12.046297370714537,4.868766743419387e+24,2.999650055370677e+24,4.6817533637184065e+25,2.6513450140275197e+49,1.1307119327376468e+49,2.192949182590364e+51,-1.5913212706975878e+51,-4.360708798304145e+50,-3.7541892559733584e+53,0
1.5853326300993106e+24,2.1306324362696375e+24,4.7696799475221195e+25,5.50412976596056e+23,9.563777414755285e+23,3.492343253466424e+23,1.1389584437519935e+24,1.325881559971122e+24,1.2203861389067818e+24,3.0584914072886266e+23,5.8269515877112375e+23,4.655992953011027e+25,1.3324369570763598e+25,1.126237828782073e+25,6.172641392073194e+25,5.8817730759473033e+23,1.4048238958545405e+24,4.1149363106825596e+23,7.689367020564227,2.8291629416426245,10.673026015845023,76.63203359035265,14.390267027995698,120.02135880746714,1.5853326300993098e+24,2.1306324362696372e+24,4.769679947522121e+25,3.810505884651559e+48,6.297556489555745e+48,2.2764740225074982e+51,-4.225310753179824e+50,-4.942338825621658e+50,-3.871410785140461e+53,0
1.1448573359950524e+24,5.094591036545957e+23,4.764030853253346e+25,1.7892238773550927e+23,1.9437575743454023e+23,2.6242864422879005e+23,2.2308115383852162e+23,2.2484842493603443e+23,3.3189078308208854e+23,7.512278155444935e+23,3.9205086359576e+22,4.682637482574127e+25,1.6316466155866837e+24,8.953778396107918e+23,4.818256072111807e+25,5.8817730759473033e+23,1.4048238958545405e+24,4.1149363106825596e+23,0.3004671653102916,-0.2998135463149937,-0.49726950471496173,-0.519335862179438,-1.0163303498817702,-0.225846950605066,1.144857335995052e+24,5.094591036545956e+23,4.7640308532533465e+25,1.3604635209796133e+48,3.1010539249275955e+47,2.2697091485668765e+51,-4.225310753179824e+50,-4.942338825621658e+50,-3.871410785140461e+53,0
1.562787775110279e+24,1.597510464192371e+23,4.759854855931515e+25,2.0187664451495284e+23,8.205937187931374e+22,2.3672864374850085e+23,2.5012617927558922e+23,9.889235369172389e+22,2.8788482582624087e+23,1.0191083211846242e+24,3.279621762467838e+21,4.704931988987482e+25,2.2919023125750148e+24,3.812016299265182e+23,4.827435486604755e+25,5.8817730759473033e+23,1.4048238958545405e+24,4.1149363106825596e+23,0.2558913236521507,0.3783126591611282,0.17037963456422586,0.004096968035071313,-0.7388365022818291,-0.6815711329275791,1.562787775110279e+24,1.5975104641923714e+23,4.759854855931515e+25,2.5048687355931406e+48,3.5300094450730275e+46,2.265704702626424e+51,-4.225310753179824e+50,-4.942338825621658e+50,-3.871410785140461e+53,0
1.5094763149541125e+24,1.4617686094464167e+23,4.760940766425242e+25,2.1085379396298344e+23,7.624116531342702e+22,2.2669482690963816e+23,2.694681277351316e+23,9.391514036808326e+22,2.7723577747549186e+23,9.664348533355616e+23,3.279621762467838e+21,4.704931988987482e+25,2.2919023125750148e+24,3.812016299265182e+23,4.827435486604755e+25,5.8817730759473033e+23,1.4048238958545405e+24,4.1149363106825596e+23,0.3793178904498514,0.5070043009197163,0.19778943666724924,0.21732061691123272,-0.4210501930193047,-0.5243586649591663,1.5094763149541122e+24,1.4617686094464167e+23,4.760940766425242e+25,2.3511318172725228e+48,3.018772826598588e+46,2.2667325578172896e+51,-4.225310753179824e+50,-4.942338825621658e+50,-3.871410785140461e+53,0
1.0531116268205081e+24,6.123936759205025e+23,4.763244603835387e+25,2.303422282434473e+23,1.946314332307686e+23,2.573325903202048e+23,2.784982502669943e+23,2.3854032901273356e+23,3.247107493886105e+23,5.0155272723062346e+23,3.9205086359576e+22,4.682637482574127e+25,1.6316466155866837e+24,1.0676499910931407e+24,4.818256072111807e+25,5.8817730759473033e+23,1.4048238958545405e+24,4.1149363106825596e+23,0.02794279982601815,-0.3514025367631124,-0.41856032210727145,-0.5996627597494468,-0.5420550763326131,-0.2975802420829896,1.0531116268205076e+24,6.123936759205024e+23,4.763244603835384e+25,1.1866053739463133e+48,4.319275028729284e+47,2.268955352667459e+51,-4.225310753179824e+50,-4.942338825621658e+50,-3.871410785140461e+53,0
1.4162716721073895e+24,1.7562164146578716e+24,4.760703794518638e+25,3.331925310565104e+23,4.4505229553910696e+23,2.3667578406690187e+23,4.1049027702888975e+23,5.2038944103297686e+23,2.919797597584924e+23,3.0584914072886266e+23,1.076017576808022e+24,4.659323713943941e+25,2.442298574336403e+24,3.0034183932879265e+24,4.8197935121962705e+25,5.8817730759473033e+23,1.4048238958545405e+24,4.1149363106825596e+23,-0.08672802094496207,0.7950718278933876,-0.4793041125970309,-0.27630876786282066,-0.6954090789397136,0.35985358824694913,1.4162716721073892e+24,1.7562164146578713e+24,4.760703794518639e+25,2.174327716749115e+48,3.355101265452361e+48,2.2665153140945254e+51,-4.225310753179824e+50,-4.942338825621658e+50,-3.871410785140461e+53,0
2.2536868889499554e+24,3.910877810521542e+24,4.754756173926239e+25,2.767893180775912e+23,5.985563200629204e+23,2.6840445747784485e+23,3.57070667685931e+23,7.15469853699427e+23,3.6292147067837926e+23,1.6335323051295162e+24,2.8967316537456107e+24,4.655992953011027e+25,3.159193553644152e+24,5.679088571921639e+24,4.816385080689313e+25,5.8817730759473033e+23,1.4048238958545405e+24,4.1149363106825596e+23,0.4784771676992324,0.7626457690879106,-1.014206185250983,0.30540670091062205,-0.21218496911710139,1.1195111183374387,2.2536868889499552e+24,3.910877810521542e+24,4.754756173926239e+25,5.2066040551466036e+48,1.5806862360382446e+49,2.2609023393428482e+51,-4.225310753179824e+50,-4.942338825621658e+50,-3.871410785140461e+53,0
75.96009000500872,46.60861391351237,174.5743952368736,41.373932255763975,27.574270048394443,150.32741082659192,68.40194717695,70.78992965598164,746.3146475914444,0.8298871323313153,1.1324332759844125,0.6819439137495058,976.841533961893,1720.1244360849,19634.60398515,49.68386490802544,29.852549887948364,88.73139379467297,5.266725032979907,18.647553857032378,24.848153650679297,52.10174452346152,434.733524406819,644.4398153953043,75.96009000500864,46.60861391351239,174.5743952368736,10448.761651167271,7183.57703163769,587461.7726818618,-97403.048957627,-43485.043507875045,-3946054.4378910214,1
30.219730084254998,17.07645560901623,40.29438624171376,11.834959106145218,7.841606963011357,18.417811131791108,15.223243766337609,9.680509313424938,22.15738177112324,0.36945364860084523,1.0170435895775942,0.6819439137495058,90.00769228778051,53.74526246943422,110.90917233657076,49.68386490802544,29.852549887948364,88.73139379467297,0.7866740134779218,0.6101059469683715,0.6353457302945481,0.8203218097527074,0.0251255719124428,-0.2840653516702898,30.21973008425504,17.076455609016232,40.29438624171373,1144.979237134566,385.31759673400893,2114.587129547713,-97403.048957627,-43485.043507875045,-3946054.4378910214,1
77.37339032642218,41.48823566030474,190.18575287077664,39.96979894439217,20.427374167598245,145.2369315110495,54.462195211594306,27.591013325569733,194.62175578766997,3.414675518406875,1.9981576545967665,5.173507971633895,332.31517370902145,174.00249513424984,1026.7882526865053,49.68386490802544,29.852549887948364,88.73139379467297,1.6890643441542366,1.5631448422168672,1.8703418395673646,3.6456428541360344,3.329612787744394,3.2399189158801436,77.37339032642222,41.488235660304724,190.1857528707767,8952.772237870695,2482.537714536747,74048.24842089959,-97403.048957627,-43485.043507875045,-3946054.4378910214,1
124.33163969744547,79.62842593683152,341.32400859687084,43.935442065589235,36.88784987215043,125.55277270263252,54.11288880406623,44.10463878262083,146.54119911342272,26.616705665682503,15.708142285420722,54.16138623131831,233.6248330620082,184.38439896862792,596.1092579324827,49.68386490802544,29.852549887948364,88.73139379467297,-0.12476543027032097,0.7473575149361239,-0.05943309243589896,-0.690816655994094,-0.07019285439349598,-0.8006685950163313,124.33163969744547,79.62842593683149,341.3240085968709,18386.561364576628,8285.90537932292,137976.4018822366,-97403.048957627,-43485.043507875045,-3946054.4378910214,1
71.60721159868764,53.78286368993865,131.28269864333168,26.90906372203429,23.574061816860542,59.608209405409255,34.17989125057831,29.192807509812088,76.37884272294949,6.792452153904684,4.792580772043479,10.508867078208457,179.02054716377972,172.61363543125688,409.7910233918526,49.68386490802544,29.852549887948364,88.73139379467297,0.557576674304317,0.8613812656538933,0.9070828967712805,0.2843548766845041,1.0198542233862353,0.9345237004064408,71.60721159868761,53.78286368993862,131.28269864333154,6295.8577188405825,3744.816436995459,23068.87457877287,-97403.048957627,-43485.043507875045,-3946054.4378910214,1
98.16920210823235,71.38615551883618,51.309575411160615,45.2692868678879,35.82491067423502,19.960482388694782,58.54361333357781,43.9680405192919,26.652634243818355,4.868115124223805,3.280902519077717,2.181327321594224,272.94319664617484,191.97236335636052,135.36492034819474,49.68386490802544,29.852549887948364,88.73139379467297,0.9375058214808164,0.6183842620281769,0.9087483028919934,0.9642827775661345,-0.28786512470742487,1.0063083437692653,98.16920210823233,71.38615551883618,51.30957541116062,13064.546904718436,7029.1717868655605,3343.035441008337,-97403.048957627,-43485.043507875045,-3946054.4378910214,1
512.8806608265945,148.26031658608872,145.8406895660096,216.8334809487808,38.2238689930131,28.778815648150623,253.55216230322338,44.03829107939898,37.97027678269023,225.80945098875097,88.06185916353722,95.26876897782387,976.841533961893,204.3401220506281,218.5071563263455,49.68386490802544,29.852549887948364,88.73139379467297,0.6781122253130922,-0.21963294527907787,0.7483951866034373,-0.7477535927873005,-1.4846174898678108,-0.22120130073518185,512.8806608265945,148.26031658608872,145.8406895660096,327335.2712585644,23920.492555401124,22711.248652043287,-97403.048957627,-43485.043507875045,-3946054.4378910214,1
41.74711154102906,44.613238036936686,107.45076763056272,22.379490777134972,24.35613873437812,79.276940421737,57.8338693114407,51.099954175649884,396.88688024634496,4.139506447761022,2.8526328414426225,3.210788075134348,733.6206203849999,629.6189892564,5444.377071396,23.856311950227575,24.61100305388022,47.14159112744257,9.554653686354051,8.29950247830891,13.142582988295947,108.65169000210973,90.28824867472743,173.73790585333026,41.74711154102904,44.613238036936686,107.45076763056275,5087.577761551924,4601.546324893891,169064.86317607385,-29213.214088077897,-28599.82346661329,-927716.0402344554,1
18.915320040016514,27.074685043818597,51.355356000915606,5.415417490418382,13.386993931512285,27.42555652629564,6.707459835120702,16.05125153946898,35.78672453847553,8.429733628524339,9.939209458997246,10.623213925093559,32.95366350190103,60.17205165472639,137.21251722845986,23.856311950227575,24.61100305388022,47.14159112744257,0.4367562896461491,0.8183324077823386,1.089464116705137,-0.27808717287372664,-0.6338824697011605,0.683953745182031,18.915320040016514,27.074685043818597,51.355356000915606,402.77934965600775,990.6812462052796,3918.062243173505,-29213.214088077897,-28599.82346661329,-927716.0402344554,1
23.77273297883426,24.132965142066638,58.489350018989306,10.024290690034409,9.58707788409558,20.78215675642607,12.216721562429779,11.564919376859141,25.323262110630537,4.064226761361882,1.5883233682487228,11.860699621221988,52.453847746101296,55.673082611719956,117.44725747897215,23.856311950227575,24.61100305388022,47.14159112744257,0.5063359249628967,0.3365462319402653,0.12376140541065533,-0.43775340699338505,-0.35882715922390584,-0.763317897660392,23.772732978834274,24.132965142066638,58.48935001898933,714.3911190168916,716.1473667414552,4062.271669567544,-29213.214088077897,-28599.82346661329,-927716.0402344554,1
21.09761813014621,22.00713555423055,46.262914608757626,8.87305699982517,8.953423770736519,24.13358987604646,10.761925859174545,11.092490481666138,26.49766792177451,4.607569334144541,5.538248575948343,10.623213925093559,42.88368624856214,46.44178610282057,96.86520118832355,23.856311950227575,24.61100305388022,47.14159112744257,0.2733178268448775,0.7215412946709865,0.21757128089266853,-0.8888553589650918,-0.15832760205504126,-1.2980474222791973,21.09761813014621,22.00713555423055,46.26291460875762,560.9285389638438,607.3573603881325,2842.383673389837,-29213.214088077897,-28599.82346661329,-927716.0402344554,1
28.416123714149588,30.454112716491647,61.611456064862125,11.77309412626239,11.719413546190825,26.481039152510647,14.934848941122466,13.975962956760162,32.290261568605686,4.139506447761022,5.680271933957947,5.565782008650058,86.06184426042434,60.17205165472639,137.21251722845986,23.856311950227575,24.61100305388022,47.14159112744257,0.9149980409742612,0.33423428828718493,0.3941095299121003,1.242731433461782,-0.8811528098876984,-0.5682215184850019,28.4161237141496,30.454112716491643,61.611456064862125,1030.5257998320021,1122.7805219175102,4838.632510601407,-29213.214088077897,-28599.82346661329,-927716.0402344554,1
40.10892948338458,48.671902525416535,94.4221404982909,15.414450954923387,24.87029940306222,47.426705647325164,19.432338548819764,31.686298811155535,61.494875100032154,6.2413679225871554,2.8526328414426225,3.210788075134348,101.55190337003481,159.92550602324093,322.03659623912426,23.856311950227575,24.61100305388022,47.14159112744257,0.6401668083551371,1.2140316436421126,1.2270411037337656,0.3069437350375943,1.3780519049163482,1.5259261265150705,40.108929483384586,48.67190252541652,94.42214049829094,1986.3420057790636,3372.975627793485,12697.16027984754,-29213.214088077897,-28599.82346661329,-927716.0402344554,1
117.96742064632654,73.5402916428959,67.34953894599889,54.78959574456615,26.276177031716422,34.427854035960664,66.43893799555919,29.388830968281162,41.82498112901903,27.504611336611887,33.67513995589231,27.32945140727987,227.5876422414181,109.52598260957807,153.3103888970183,23.856311950227575,24.61100305388022,47.14159112744257,0.4676441017325051,-0.1973769980837088,1.0798156740061158,-1.0605553565163606,-1.5565999624276357,-0.18191352107376213,117.96742064632654,73.5402916428959,67.34953894599889,18330.44481592511,6271.8778806043865,6285.289442681418,-29213.214088077897,-28599.82346661329,-927716.0402344554,1
