accX_mean,accY_mean,accZ_mean,accX_mad,accY_mad,accZ_mad,accX_std,accY_std,accZ_std,accX_min,accY_min,accZ_min,accX_max,accY_max,accZ_max,accX_iqr,accY_iqr,accZ_iqr,accX_skew,accY_skew,accZ_skew,accX_kurtosis,accY_kurtosis,accZ_kurtosis,accX_sma,accY_sma,accZ_sma,accX_energy,accY_energy,accZ_energy,accX_entropy,accY_entropy,accZ_entropy,Tremor
3.744936423466979e+19,5.5260939883590664e+19,3.5360505789645986e+20,3.738217384891401e+19,6.8181477613950665e+19,6.844895009018036e+20,1.21439353223283e+20,2.482986055938076e+20,2.983888007499089e+21,1.2056843644263368e+18,2.1047348631441037e+18,5.855947822434386e+17,1.0615916622096944e+21,2.1697927032739484e+21,2.60219613417141e+22,7.749066709869513e+18,6.325711022976546e+18,5.3428193513966e+18,8.000938955349454,8.235738400545413,8.486058354895004,64.45206091433813,67.13236912438501,70.01329839351476,3.74493642346698e+19,5.526093988359066e+19,3.5360505789646e+20,1.6149971392870259e+40,6.470596901664703e+40,9.028624178266842e+42,-3.6402570922863516e+41,-1.3987011203636838e+42,-1.992135434803295e+44,0
7.896428114306381e+18,5.173891819244997e+18,7.68571166400085e+18,2.9222222119799194e+18,2.306067541103762e+18,3.140105037910878e+18,3.749328540803712e+18,2.894097610272223e+18,3.8874438160261207e+18,2.1611309856010286e+18,4.43374125832172e+17,3.0357472488560435e+17,1.924879474120736e+19,1.472335280159001e+19,1.8554540464030884e+19,7.749066709869513e+18,6.325711022976546e+18,5.3428193513966e+18,0.7006203902956905,0.6538053897277081,0.23310767687943432,0.2365219363852975,0.4726606711096899,-0.2766857657021382,7.89642811430638e+18,5.173891819244998e+18,7.685711664000853e+18,7.641104147129348e+37,3.5144957535033713e+37,7.418238320491847e+37,-3.6402570922863516e+41,-1.3987011203636838e+42,-1.992135434803295e+44,0
8.497091596413748e+18,4.760403843729369e+18,9.531229288892518e+18,3.544875945710214e+18,1.8963089704944502e+18,3.6578643644412785e+18,4.261918168779638e+18,2.3193399099815163e+18,4.5123300154929935e+18,1.305030578240346e+18,1.995655176739154e+17,2.5493966495789696e+18,2.1193753146687427e+19,1.047941083020203e+19,2.221607264851424e+19,7.749066709869513e+18,6.325711022976546e+18,5.3428193513966e+18,0.641368340673394,0.2851605266362193,0.6112808374016471,0.04300184599579815,-0.5732965603629294,-0.2883818310370616,8.497091596413747e+18,4.760403843729369e+18,9.531229288892518e+18,9.036451207521912e+37,2.8040782373426425e+37,1.1120545392616161e+38,-3.6402570922863516e+41,-1.3987011203636838e+42,-1.992135434803295e+44,0
8.36285103207823e+18,4.5062900671407734e+18,1.0517186395220965e+19,3.409400382567591e+18,1.667646921917061e+18,3.847961014830928e+18,4.17249997099462e+18,2.208007010438443e+18,4.77967468179878e+18,1.305030578240346e+18,1.995655176739154e+17,2.5493966495789696e+18,2.1193753146687427e+19,1.047941083020203e+19,2.0855606858810114e+19,7.749066709869513e+18,6.325711022976546e+18,5.3428193513966e+18,0.6892874497751283,0.5800810209678666,0.45227012588631516,0.2872461310894887,-0.09892067689061879,-0.5672808577135378,8.362851032078226e+18,4.506290067140773e+18,1.0517186395220961e+19,8.7347033392682e+37,2.5181945127356906e+37,1.334564997356492e+38,-3.6402570922863516e+41,-1.3987011203636838e+42,-1.992135434803295e+44,0
8.454909278668552e+18,4.420672374114891e+18,8.1925435145724e+18,3.1134840349604024e+18,1.9700901835763046e+18,3.134831428295842e+18,3.7947365528906926e+18,2.355935346916802e+18,4.0757983132691835e+18,2.1611309856010286e+18,2.9120632673558784e+17,3.0357472488560435e+17,1.924879474120736e+19,1.0607346461616101e+19,2.221607264851424e+19,7.749066709869513e+18,6.325711022976546e+18,5.3428193513966e+18,0.5814614816728129,0.21058213771381415,0.7593442104621831,-0.30598662890398876,-0.6532088540665479,0.9243682301335623,8.45490927866855e+18,4.4206723741148913e+18,8.192543514572402e+18,8.588551641636029e+37,2.5092775598114573e+37,8.3729901128610245e+37,-3.6402570922863516e+41,-1.3987011203636838e+42,-1.992135434803295e+44,0
1.1052728024413258e+19,9.96350445269909e+18,6.586470160212065e+18,5.477763197946671e+18,4.102073379239537e+18,2.6097361560719263e+18,7.031080244781103e+18,5.115672301769734e+18,3.2785602433053507e+18,1.2056843644263368e+18,2.003278837755529e+18,4.926700724979277e+17,3.512332136235912e+19,2.266591325560324e+19,1.6727339376788859e+19,7.749066709869513e+18,6.325711022976546e+18,5.3428193513966e+18,1.0997097186979015,0.6353986897174274,0.6439805048113916,1.0856911183052098,-0.20829867876118602,0.25628753482777267,1.105272802441326e+19,9.96350445269909e+18,6.586470160212063e+18,1.715988861902013e+38,1.2544152407804864e+38,5.413054644034635e+37,-3.6402570922863516e+41,-1.3987011203636838e+42,-1.992135434803295e+44,0
4.34903899487374e+19,5.573011299918464e+19,7.23935832574363e+18,2.5382317137486e+19,3.5081620976643244e+19,3.3853919922659707e+18,3.189485913024278e+19,4.866680764320479e+19,4.625815548448902e+18,4.713992021915437e+18,1.0124004360262648e+19,2.403185268536959e+18,1.1787594604186806e+20,1.994308125442419e+20,2.1935681772688105e+19,7.749066709869513e+18,6.325711022976546e+18,5.3428193513966e+18,1.0866353654331165,1.7457104989908045,1.5719941760235296,0.20614452489441826,2.179442068244585,2.1104293915267824,4.34903899487374e+19,5.573011299918466e+19,7.239358325743629e+18,2.9086960568312705e+39,5.474303661082585e+39,7.380647845678521e+37,-3.6402570922863516e+41,-1.3987011203636838e+42,-1.992135434803295e+44,0
6.96620836832205e+22,5.126195164518022e+22,2.515580546060204e+23,6.032483692481132e+22,4.8071346991922604e+22,4.1199413940717275e+23,3.6174825178878694e+23,1.7227728584913806e+23,4.2218350953232577e+24,2.3010779304934486e+21,7.662857856035298e+20,2.2107011756136113e+21,7.267025452823026e+24,2.8808965007013226e+24,8.656433026040874e+25,3.0886889162562706e+22,2.132651988204541e+22,2.9675606831438666e+22,18.89886708430898,12.46241015752432,20.394107340328294,371.24996570208907,183.21605066870063,413.9473164377636,6.966208368322048e+22,5.126195164518025e+22,2.5155805460602034e+23,1.3571460357533162e+47,3.230725090601842e+46,1.7887173026940307e+49,-7.2166278484389e+48,-2.201419421314761e+48,-9.254113577201426e+50,0
1.5904295994563228e+22,9.858336926548902e+21,1.5766016436638272e+22,6.506332054698055e+21,4.160352484489005e+21,6.364363748366516e+21,8.196979700258014e+21,5.356105260189978e+21,7.97589024035373e+21,6.594156676920556e+20,5.4031639566372726e+20,1.2442003385656195e+21,4.104703624227859e+22,3.2297689081646435e+22,4.781047787780784e+22,3.0886889162562706e+22,2.132651988204541e+22,2.9675606831438666e+22,0.6093019916237562,1.0329843393688882,0.7442453938759513,0.03200768992270353,1.7972828010032744,0.9248753118443234,1.590429599456324e+22,9.858336926548892e+21,1.5766016436638266e+22,3.201371072891222e+44,1.258746705155922e+44,3.1218209940651785e+44,-7.2166278484389e+48,-2.201419421314761e+48,-9.254113577201426e+50,0
2.5384474783147555e+22,1.6172516341282211e+22,2.491336021260613e+22,1.1189111722261782e+22,7.802355579875711e+21,1.0853988979811388e+22,1.3933753041550339e+22,9.197111846738874e+21,1.3740530487587582e+22,9.45343145842093e+20,7.662857856035298e+20,1.397948747107969e+21,8.367931178883869e+22,4.026230727178807e+22,7.191724718129186e+22,3.0886889162562706e+22,2.132651988204541e+22,2.9675606831438666e+22,0.7952892139986543,0.546580283739354,0.8561987168839356,0.6507229948996711,-0.6604234720963307,0.49010390140914195,2.5384474783147534e+22,1.61725163412822e+22,2.491336021260615e+22,8.385210338391664e+44,3.4613715113046447e+44,8.09477695163391e+44,-7.2166278484389e+48,-2.201419421314761e+48,-9.254113577201426e+50,0
3.7226681850354008e+22,3.392331973653169e+22,4.345675837673594e+22,1.7841259593774452e+22,1.767361632798049e+22,1.778138695569553e+22,2.1660900304808053e+22,1.9688474195598567e+22,2.111741641834969e+22,7.659345192517346e+21,4.2536673275907334e+21,1.1553079028763672e+22,1.0292980833784803e+23,6.9977130798092994e+22,9.233729255738085e+22,3.0886889162562706e+22,2.132651988204541e+22,2.9675606831438666e+22,0.766908038005854,0.1834749250887256,0.3469950457556264,0.5807685857411884,-1.296893616632066,-0.7247159351117807,3.722668185035401e+22,3.392331973653169e+22,4.345675837673594e+22,1.85502044360231e+45,1.538427638097711e+45,2.3344351247999935e+45,-7.2166278484389e+48,-2.201419421314761e+48,-9.254113577201426e+50,0
4.990265937815108e+22,3.8371081491441055e+22,6.029270414492422e+22,1.7310968332351552e+22,1.5751686654863945e+22,2.6390044031670456e+22,2.1782447712882796e+22,1.9275883767223732e+22,3.3762888973286208e+22,4.079972087624368e+21,6.154391621413289e+21,5.335671551982066e+21,1.0558461336792493e+23,8.796414356152228e+22,1.6492102283793365e+23,3.0886889162562706e+22,2.132651988204541e+22,2.9675606831438666e+22,0.2791737853051572,0.4490153736480403,0.8011017599032603,-0.3228129478664643,-0.4661593468748224,0.34954902636124263,4.990265937815107e+22,3.837108149144105e+22,6.0292704144924235e+22,2.964750441376242e+45,1.843899589830329e+45,4.775142844929816e+45,-7.2166278484389e+48,-2.201419421314761e+48,-9.254113577201426e+50,0
8.504031209809038e+22,7.425296052507659e+22,7.352887502175173e+22,3.649752267056681e+22,4.66257057310756e+22,3.5987471169941523e+22,4.985841210883967e+22,7.309568516991969e+22,4.22842875851986e+22,8.934362844068041e+21,9.22474288060272e+21,3.883350415585732e+21,2.612621299857892e+23,4.646624608501066e+23,1.762724499945802e+23,3.0886889162562706e+22,2.132651988204541e+22,2.9675606831438666e+22,1.3992174225031897,3.2063994227401165,0.4286490439280045,1.9851107781646,13.569105541477594,-0.6748112751228854,8.50403120980904e+22,7.425296052507659e+22,7.3528875021751705e+22,9.717715939755509e+45,1.0856481337198598e+46,7.19445643855216e+45,-7.2166278484389e+48,-2.201419421314761e+48,-9.254113577201426e+50,0
7.257562674668402e+23,9.213762970663716e+23,3.837656479952825e+22,3.187828317819596e+23,3.386185998712864e+23,1.1995730349387086e+22,3.5121735314465445e+23,3.449027719082723e+23,1.459160965553684e+22,1.9882290644071067e+23,5.436297324925269e+23,2.635489868178302e+22,1.056185034050071e+24,1.344017121144555e+24,6.236802549830242e+22,3.0886889162562706e+22,2.132651988204541e+22,2.9675606831438666e+22,-0.47670718401989204,0.06844439824047839,0.8503541459817207,-1.3888155501237287,-1.860242099581126,-0.9626972486449827,7.257562674668402e+23,9.213762970663716e+23,3.837656479952825e+22,6.5007578891733675e+47,9.678922028657482e+47,1.6856757981519464e+45,-7.2166278484389e+48,-2.201419421314761e+48,-9.254113577201426e+50,0
2.806132853095082e+21,3.013249186184469e+21,1.5774124261823266e+22,1.5162045542926608e+21,3.491482757082771e+21,2.694869036195035e+22,3.2626983822417094e+21,2.990647229055104e+22,2.883690901042059e+23,1.4391813853447324e+19,3.655487500661326e+19,1.0154140717218857e+20,5.2826409962681406e+22,6.375172702052603e+23,6.173549871967464e+24,1.5802672470203575e+21,1.0182740853027931e+21,1.9775483196247035e+21,9.0686864528806,20.913602173014656,21.306254311255834,122.94315026637454,440.3920133832378,451.971771400173,2.806132853095083e+21,3.013249186184466e+21,1.5774124261823243e+22,1.851958232270221e+43,9.034767555235382e+44,8.340555512375511e+46,-2.168812779709686e+45,-6.595760395927304e+46,-6.258629865161715e+48,0
1.768333260166533e+21,7.134225404308876e+20,1.2899375778854645e+21,5.486808200381907e+20,3.219576927533589e+20,5.528239669662733e+20,6.833971679054711e+20,3.959755863115657e+20,6.801196040529851e+20,3.401097851398885e+20,3.655487500661326e+19,1.0154140717218857e+20,3.7407147077495035e+21,2.0345086475860503e+21,3.2868016871399647e+21,1.5802672470203575e+21,1.0182740853027931e+21,1.9775483196247035e+21,0.29112374572291205,0.5713943276668929,0.6504028712110507,-0.35441748410036045,-0.07822777433243111,-0.1691216658410073,1.7683332601665332e+21,7.134225404308874e+20,1.2899375778854645e+21,3.5940342081124184e+42,6.657683861496492e+41,2.126501630658208e+42,-2.168812779709686e+45,-6.595760395927304e+46,-6.258629865161715e+48,0
1.7263786220875164e+21,1.0609133796502779e+21,2.4458712231405206e+21,5.467740705089428e+20,4.349384485679343e+20,9.719942742234833e+20,7.018558151398636e+20,5.7350701475404415e+20,1.2506397434675646e+21,1.4471172965018613e+20,2.1252629579111163e+20,6.097341696691431e+20,3.366279596788557e+21,3.1496740650982467e+21,6.771203766749642e+21,1.5802672470203575e+21,1.0182740853027931e+21,1.9775483196247035e+21,0.1806435916617181,1.2838108677223892,1.1035228409039155,0.011720825738521512,3.0235640640984087,1.9445013514512226,1.7263786220875164e+21,1.060913379650278e+21,2.445871223140521e+21,3.4729847320464343e+42,1.4544474950930702e+42,7.546385808127523e+42,-2.168812779709686e+45,-6.595760395927304e+46,-6.258629865161715e+48,0
2.608482021761369e+21,1.3113397064989032e+21,2.60424789856157e+21,9.30252868106788e+20,5.4889689860266636e+20,1.2004303881512168e+21,1.217300340463277e+21,6.955983426956506e+20,1.4868340745475342e+21,1.4391813853447324e+19,2.348600553750799e+20,2.4690041648205817e+20,6.032689162413529e+21,3.4966923198306677e+21,8.168609956698871e+21,1.5802672470203575e+21,1.0182740853027931e+21,1.9775483196247035e+21,0.5783509420582515,0.93894484672403,0.7266948026146268,0.7495825412265016,0.7059129986779227,0.8113718723190124,2.608482021761369e+21,1.311339706498903e+21,2.6042478985615707e+21,8.285998576744288e+42,2.2034688802015656e+42,8.99278268239798e+42,-2.168812779709686e+45,-6.595760395927304e+46,-6.258629865161715e+48,0
3.7977708889620616e+21,2.3206675873384398e+21,4.4467455693627505e+21,1.3728374682510104e+21,8.658062786157595e+20,1.7611958790347117e+21,1.638961098559598e+21,1.0724470009493751e+21,2.0921110120520016e+21,5.5907450807894567e+20,4.488917578904801e+20,3.9595300422459195e+20,7.337069491988981e+21,4.962286805325003e+21,9.857912137196375e+21,1.5802672470203575e+21,1.0182740853027931e+21,1.9775483196247035e+21,0.3267061341965662,0.27723894135061894,0.21418114565709245,-0.7833660587180415,-0.5025498044442767,-0.6371354318815463,3.797770888962062e+21,2.3206675873384398e+21,4.4467455693627505e+21,1.710925720763938e+43,6.535640620768522e+42,2.41504746453965e+43,-2.168812779709686e+45,-6.595760395927304e+46,-6.258629865161715e+48,0
5.056497832232187e+21,3.509621205649159e+21,2.2173194804260947e+21,2.1700913113474023e+21,1.7779749342144891e+21,8.897265534123074e+20,3.0901802848089423e+21,2.2342155040793937e+21,1.0892222216869814e+21,1.4784194974446518e+20,7.113112261944025e+20,3.670268112364729e+20,1.3977812911170488e+22,9.764641103184472e+21,5.13720935569016e+21,1.5802672470203575e+21,1.0182740853027931e+21,1.9775483196247035e+21,1.2943790885360469,1.08645940886136,0.5230417894638812,1.9242948478047825,0.46910710730778726,0.027340268562949355,5.056497832232187e+21,3.509621205649159e+21,2.217319480426095e+21,3.511738451999067e+43,1.7309159925810995e+43,6.10291072649377e+42,-2.168812779709686e+45,-6.595760395927304e+46,-6.258629865161715e+48,0
1.3995060952929506e+22,1.731903714106471e+22,3.668132277679467e+21,2.851771308175371e+21,1.4874508233424262e+22,1.57168996225498e+21,3.642164532739255e+21,1.815768904134385e+22,1.9245942958487757e+21,9.81547302327513e+21,2.1568014117222437e+21,7.039316806172007e+20,2.121769292152374e+22,5.76534358040691e+22,6.887125238288787e+21,1.5802672470203575e+21,1.0182740853027931e+21,1.9775483196247035e+21,0.7812694374505924,1.360263975243706,0.3422085081121854,-0.483385584592412,0.3058682030512694,-0.8863884452860895,1.3995060952929506e+22,1.7319037141064712e+22,3.6681322776794675e+21,2.0912709355975588e+44,6.296507188157175e+44,1.7159257610167604e+43,-2.168812779709686e+45,-6.595760395927304e+46,-6.258629865161715e+48,0
4.1834403235195263e+20,3.66336741615314e+20,2.0957559577841778e+21,3.1166677107431395e+20,3.6224888134748406e+20,3.4008356360622225e+21,1.1275271371826722e+21,2.681952710069458e+21,3.4264445025241264e+22,2.1788948096804454e+17,2.8766778913566966e+18,1.6049484567858905e+19,2.006289823048243e+22,5.409567609789282e+22,6.907649722603838e+23,2.6772899623868275e+20,2.0240056916855384e+20,3.234503921420342e+20,14.318215180330165,19.85287207145976,20.046701101854158,233.69095050065812,394.72849690590886,399.9144638459126,4.1834403235195276e+20,3.6633674161531394e+20,2.0957559577841778e+21,1.4463291744878446e+42,7.327072947306235e+42,1.1784443859223688e+45,-1.4893491987361443e+44,-5.937609928599581e+44,-9.913777422363017e+46,0
2.0161670717320672e+20,1.3903323637114996e+20,2.4404103369409934e+20,9.351793067083632e+19,5.8097709153230135e+19,1.1778839727007518e+20,1.1277937348715667e+20,7.024769254908563e+19,1.4080240877761238e+20,7.310549905867923e+18,1.8335413214105625e+19,1.9670297441999323e+19,4.502927289123452e+20,3.200936871086677e+20,5.8837135040819397e+20,2.6772899623868275e+20,2.0240056916855384e+20,3.234503921420342e+20,0.48363612736495915,0.39891423001121395,0.5683749404047003,-0.5896136652913895,-0.45158970821926525,-0.49376771423351684,2.016167071732067e+20,1.3903323637114995e+20,2.4404103369409944e+20,5.336848369552216e+40,2.426497912430691e+40,7.938134444406246e+40,-1.4893491987361443e+44,-5.937609928599581e+44,-9.913777422363017e+46,0
2.93380401940936e+20,1.043155606414903e+20,2.5595977014705137e+20,1.0033731624978027e+20,3.891706332466891e+19,1.1820235916421459e+20,1.1937185995304354e+20,4.787719642448823e+19,1.4170199321948648e+20,1.2048821999608948e+20,3.1171896742512796e+19,2.235702965865195e+19,5.606937011823878e+20,2.261492652063465e+20,6.002688860504506e+20,2.6772899623868275e+20,2.0240056916855384e+20,3.234503921420342e+20,0.5653537555454361,0.5158427587250571,0.5059695649428751,-0.5211239041905604,-0.24519054868080037,-0.5307803647700107,2.93380401940936e+20,1.043155606414903e+20,2.5595977014705147e+20,1.0032170119167417e+41,1.317396212941747e+40,8.559485881610681e+40,-1.4893491987361443e+44,-5.937609928599581e+44,-9.913777422363017e+46,0
3.1169600403308845e+20,1.7734762593035574e+20,3.254564861516942e+20,1.4287596143659423e+20,8.051153358776687e+19,1.3515833858712404e+20,1.7955595449792735e+20,1.0940478907884985e+20,1.7609374658667672e+20,9.644607164719407e+18,1.0928792661108335e+19,2.9968030104481333e+19,8.657928871641725e+20,6.461255939597668e+20,1.0725957752980548e+21,2.6772899623868275e+20,2.0240056916855384e+20,3.234503921420342e+20,0.716939189015532,1.483681878672207,1.2233720433337334,0.11677913219095837,2.863128583514804,2.922633370859681,3.116960040330886e+20,1.7734762593035577e+20,3.254564861516942e+20,1.2939473972585693e+41,4.3421588296521017e+40,1.3693093196514061e+41,-1.4893491987361443e+44,-5.937609928599581e+44,-9.913777422363017e+46,0
4.9274295197689925e+20,4.769801873808867e+20,1.0248712685400603e+21,2.156642281574368e+20,1.5039322267350244e+20,3.805884641808403e+20,2.5769015992838714e+20,1.788392691102777e+20,4.4772040478620883e+20,2.1788948096804454e+17,9.141642234409371e+19,1.3162265040223397e+20,1.0671954442083064e+21,8.52048905822159e+20,1.8923434755671998e+21,2.6772899623868275e+20,2.0240056916855384e+20,3.234503921420342e+20,0.14212575362992522,-0.15064685789407314,-0.14624740749454915,-0.862922438314571,-0.8664780807795918,-0.9348030443355975,4.9274295197689925e+20,4.769801873808866e+20,1.0248712685400605e+21,3.091998352468265e+41,2.594935833298039e+41,1.2508146779408388e+42,-1.4893491987361443e+44,-5.937609928599581e+44,-9.913777422363017e+46,0
7.160576220689166e+20,5.465975030853089e+20,7.145063505907736e+20,2.8109126114661165e+20,2.07479002734675e+20,2.820217060884223e+20,3.4470769775945155e+20,2.4779135428012274e+20,3.257106331979196e+20,1.0563198293616083e+20,5.71810052046974e+19,2.710372245435652e+20,1.6042925610040634e+21,1.002452611256889e+21,1.321268403555032e+21,2.6772899623868275e+20,2.0240056916855384e+20,3.234503921420342e+20,0.7312016033870623,-0.0609332183303586,0.5915550324687382,0.08252863006279476,-0.8555752063944273,-1.0429466233148261,7.160576220689166e+20,5.465975030853088e+20,7.145063505907736e+20,6.315619150176128e+41,3.601693856350715e+41,6.1660674161273525e+41,-1.4893491987361443e+44,-5.937609928599581e+44,-9.913777422363017e+46,0
2.6669529705666194e+21,8.650754225057363e+20,2.74394256976138e+20,1.484590449326312e+21,2.2158938366332112e+20,1.609308134356772e+20,2.2942212626328388e+21,2.6624047923108974e+20,2.030459166249305e+20,8.848446434113972e+20,2.986791549848891e+20,1.6049484567858905e+19,9.16144753287213e+21,1.1776903826971791e+21,6.462178647553792e+20,2.6772899623868275e+20,2.0240056916855384e+20,3.234503921420342e+20,2.162979754246008,-0.7510622633093235,0.6392244207195225,3.4968450650630984,-0.3584034882186815,-0.6941005202918831,2.6669529705666194e+21,8.650754225057365e+20,2.74394256976138e+20,1.2376089349130733e+43,8.192394794046787e+41,1.1651985251954508e+41,-1.4893491987361443e+44,-5.937609928599581e+44,-9.913777422363017e+46,0
5.1121955509488435e+19,5.4307059013002215e+19,2.8089981312982732e+20,3.6358198583956517e+19,6.418601876413283e+19,4.9030133611217204e+20,9.028727334132446e+19,3.693665919826847e+20,3.8529496325416293e+21,1.839498527449088e+16,9.637469652873339e+17,2.0621099421580636e+18,1.1840894933352954e+21,5.717890391831533e+21,6.058796415492704e+22,3.308966828791885e+19,1.7903323973149614e+19,2.6756406436239065e+19,9.016559442767091,14.734920987176602,15.587699849930345,102.12199512607798,221.9086312250793,240.9856868028404,5.112195550948842e+19,5.430705901300221e+19,2.8089981312982732e+20,1.0765246062525153e+40,1.3938093593154478e+41,1.492412557591906e+43,-9.783292602751068e+41,-9.203788193738864e+42,-9.87818103911135e+44,0
1.7589644099000019e+19,1.7348256434602494e+19,2.3988590630111703e+19,5.833325037810589e+18,6.590321591367756e+18,8.065631394676444e+18,6.708221773061702e+18,8.437383430174964e+18,9.785372329387162e+18,8.83955634189814e+18,2.676732811875381e+18,4.88487547984293e+18,3.1900514264645108e+19,3.668674401778101e+19,4.03144783560351e+19,3.308966828791885e+19,1.7903323973149614e+19,2.6756406436239065e+19,0.7447228534085213,0.6338728091224716,-0.011264831692202198,-0.6609965469161905,0.2671246452235825,-0.636419763358155,1.758964409900002e+19,1.7348256434602496e+19,2.3988590630111703e+19,3.5439581888606526e+38,3.72151440468518e+38,6.712059920438186e+38,-9.783292602751068e+41,-9.203788193738864e+42,-9.87818103911135e+44,0
1.849775241464617e+19,1.2998438494878495e+19,2.359523090554924e+19,7.253829702159008e+18,5.753872982856389e+18,8.869648824610512e+18,8.930598385882089e+18,6.865896251817141e+18,1.0654472073605327e+19,4.988736394485174e+18,1.268517844344642e+18,3.69363668300749e+18,4.7592102282336846e+19,3.3291373446695477e+19,4.618332491452277e+19,3.308966828791885e+19,1.7903323973149614e+19,2.6756406436239065e+19,0.9286135910482726,0.5986376609372361,0.17326503203061366,0.8405657330406022,0.035058211566332265,-0.8003634384230764,1.8497752414646166e+19,1.2998438494878495e+19,2.3595230905549234e+19,4.219224319234679e+38,2.160999346458558e+38,6.702526966534213e+38,-9.783292602751068e+41,-9.203788193738864e+42,-9.87818103911135e+44,0
2.8816236084802773e+19,1.8069456220062818e+19,2.5259213294310945e+19,1.2778924262833881e+19,8.25774672990905e+18,1.1264256775896527e+19,1.6581446026935085e+19,1.0365963406660479e+19,1.4689059826148061e+19,1.839498527449088e+16,9.637469652873339e+17,2.0621099421580636e+18,8.082481283528675e+19,4.934666454967393e+19,8.335626460206486e+19,3.308966828791885e+19,1.7903323973149614e+19,2.6756406436239065e+19,0.7725122806856425,0.7875731608349792,1.1286817663963489,0.5049732576184085,0.07913238407160872,1.9432077723429435,2.881623608480277e+19,1.806945622006282e+19,2.525921329431094e+19,1.1053198144392505e+39,4.33958445436991e+38,8.537963348236515e+38,-9.783292602751068e+41,-9.203788193738864e+42,-9.87818103911135e+44,0
5.564195999379631e+19,2.3305791221938074e+19,4.999304073908485e+19,1.9597171389234508e+19,9.666026612852982e+18,1.6936005164279454e+19,2.4219829003935683e+19,1.2173800268375015e+19,2.1100067062683996e+19,1.8529237092543365e+18,2.9096370014658135e+18,1.0780843620249844e+19,9.894306139780001e+19,5.620229086077031e+19,9.472184109715477e+19,3.308966828791885e+19,1.7903323973149614e+19,2.6756406436239065e+19,-0.10943411924339126,0.7627800909867644,0.3272425612351021,-0.38321891108785655,0.49881088839351584,-0.4884423444923529,5.564195999379633e+19,2.3305791221938074e+19,4.9993040739084845e+19,3.682627828931115e+39,6.913613174548534e+38,2.9445169523895594e+39,-9.783292602751068e+41,-9.203788193738864e+42,-9.87818103911135e+44,0
7.56630211327494e+19,2.8224267248479494e+19,5.479802508807987e+19,2.1311555327985676e+19,9.99214167123136e+18,2.436794966441263e+19,2.4885982697984356e+19,1.2219759773279062e+19,2.89622920747319e+19,3.0486481593891185e+19,3.833117318021932e+18,1.3657972730581565e+19,1.249209568707339e+20,5.372604642647764e+19,1.2819567711496041e+20,3.308966828791885e+19,1.7903323973149614e+19,2.6756406436239065e+19,0.061976763580030535,0.21260514133502004,0.6943857611758357,-0.9219363818994841,-0.6178985602966307,-0.321615267484439,7.56630211327494e+19,2.8224267248479494e+19,5.479802508807988e+19,6.344204901779259e+39,9.45931790630241e+38,3.84163791577591e+39,-9.783292602751068e+41,-9.203788193738864e+42,-9.87818103911135e+44,0
1.0488110975576982e+20,1.0012100261347474e+20,5.525948974034677e+19,7.670739909663384e+19,8.871796878089866e+19,2.0082909503980757e+19,1.083901900537898e+20,1.7409613648491273e+20,2.6657129618940076e+19,1.9224564096806633e+19,5.301699105163227e+18,1.5297130927627774e+19,5.2046808763073384e+20,1.0411723679354685e+21,1.3560120314716334e+20,3.308966828791885e+19,1.7903323973149614e+19,2.6756406436239065e+19,2.2323310013943733,4.369790242749537,0.9458869050504818,4.8356610899328984,20.31086766774938,1.2813250369413218,1.0488110975576982e+20,1.0012100261347474e+20,5.525948974034675e+19,2.2748480483498504e+40,4.0333679903300774e+40,3.764213765884461e+39,-9.783292602751068e+41,-9.203788193738864e+42,-9.87818103911135e+44,0
8.079729809379006e+21,8.596792257647303e+21,4.370043906818918e+22,6.229418298239344e+21,9.534050046428347e+21,7.335515849224713e+22,2.248311205463111e+22,6.980434934022842e+22,7.57034286312182e+23,1.273923001609987e+20,1.2480014082650721e+20,2.963335959099794e+20,3.873375832842056e+23,1.426203103659067e+24,1.5631671618670703e+25,4.5456972078710994e+21,2.986889253664274e+21,5.592479121494672e+21,13.007261089086622,19.76252548018109,20.541429817352412,198.50747275800347,397.37649016347063,419.96775069789794,8.079729809379009e+21,8.596792257647312e+21,4.370043906818911e+22,5.707723614536667e+44,4.946552023933791e+45,5.75010639026947e+47,-4.698820642198094e+46,-3.0862644618876104e+47,-3.6312690257418306e+49,0
2.8127685684567264e+21,1.9636243189839975e+21,3.4371095039437916e+21,1.2642273795596513e+21,8.358571873942555e+20,1.611940599530454e+21,1.5669624106274353e+21,1.0900527700609005e+21,2.030900221168017e+21,1.380411757654345e+20,1.0666780006676195e+20,2.963335959099794e+20,1.0107534610125564e+22,7.230464131856677e+21,1.1016336939107364e+22,4.5456972078710994e+21,2.986889253664274e+21,5.592479121494672e+21,0.8165110141553386,0.9131798176401166,0.9352701470250306,0.5729804238973619,1.4902228369530128,0.6255950090840394,2.8127685684567254e+21,1.9636243189839964e+21,3.437109503943793e+21,1.0367038216017438e+43,5.044035507622806e+42,1.593827745044105e+43,-4.698820642198094e+46,-3.0862644618876104e+47,-3.6312690257418306e+49,0
5.56056622208052e+21,4.5753731338414226e+21,7.306253122998743e+21,1.9463644414249699e+21,1.8129789921575544e+21,3.4306509763831587e+21,2.4521954847061306e+21,2.1272410279377122e+21,3.970688697494706e+21,2.743367851944972e+20,1.2978772941069523e+21,1.0800986463627191e+21,1.2447399394086568e+22,1.0106789695530593e+22,1.4720420401224232e+22,4.5456972078710994e+21,2.986889253664274e+21,5.592479121494672e+21,0.35484099879755904,0.5552309378758151,0.205143618525642,0.21544016181405423,-0.6233236848020884,-1.1510575637464833,5.56056622208052e+21,4.5753731338414226e+21,7.306253122998741e+21,3.693315940535596e+43,2.5459193704819376e+43,6.914770342974106e+43,-4.698820642198094e+46,-3.0862644618876104e+47,-3.6312690257418306e+49,0
7.612046108798566e+21,3.1535332460656565e+21,5.989784270218654e+21,3.0604615527173115e+21,1.1804394947597575e+21,2.1905725406399103e+21,3.6892677958750537e+21,1.541188012457231e+21,2.7717298102811576e+21,2.928799080300611e+20,5.06252217406967e+20,1.4754850454840638e+21,1.561525142265291e+22,7.380882893298721e+21,1.3482290692179353e+22,4.5456972078710994e+21,2.986889253664274e+21,5.592479121494672e+21,0.08398096303750213,0.7623618942011968,0.4829052507181602,-0.5333906213492834,0.632181037808861,0.2964224051430264,7.612046108798566e+21,3.153533246065657e+21,5.989784270218655e+21,7.155394283215618e+43,1.2320032423783268e+43,4.356000174496004e+43,-4.698820642198094e+46,-3.0862644618876104e+47,-3.6312690257418306e+49,0
7.662045522380041e+21,5.674344561760176e+21,1.028097473146236e+22,3.092931144634846e+21,2.7702528524764074e+21,4.5893802442463474e+21,3.7303771991441985e+21,3.6005386009855095e+21,5.534765164887236e+21,1.273923001609987e+20,5.6477009063159765e+20,1.036758487288276e+21,1.7498719262912184e+22,1.7524550302742358e+22,2.5255898720275737e+22,4.5456972078710994e+21,2.986889253664274e+21,5.592479121494672e+21,0.3381595241151263,1.1059564937574433,0.5381141145903428,-0.3778373182158741,0.8775907490047272,-0.3466565273858637,7.662045522380042e+21,5.674344561760175e+21,1.028097473146236e+22,7.262265563491898e+43,4.516206442276396e+43,1.3633206685941675e+44,-4.698820642198094e+46,-3.0862644618876104e+47,-3.6312690257418306e+49,0
3.526750639128766e+22,2.8280017375304434e+22,9.856517885491539e+21,2.7372056359594084e+22,2.1081546132382198e+22,3.1647195344780515e+21,4.116677118016003e+22,3.848062570892499e+22,5.019593224873197e+21,1.6697295540121974e+20,3.633205078118961e+21,1.7528572764406494e+21,1.634267600844569e+23,2.0602638739802118e+23,2.9057269284748346e+22,4.5456972078710994e+21,2.986889253664274e+21,5.592479121494672e+21,2.310306629390526,3.7568740911041894,1.8224906210823775,4.075801115381839,14.564842681556776,5.9367247879736365,3.526750639128765e+22,2.8280017375304425e+22,9.856517885491539e+21,2.93850005645917e+45,2.280517937697899e+45,1.223472609702075e+44,-4.698820642198094e+46,-3.0862644618876104e+47,-3.6312690257418306e+49,0
5.031704565480383e+19,3.794607736600302e+19,3.3139466339726485e+20,6.477429611668094e+19,3.5355515828971995e+19,6.427524862604458e+20,1.979892653023395e+20,6.765780569559462e+19,2.820311485109485e+21,3.1265259212690964e+18,1.330015285202606e+17,1.3766450334851625e+18,1.6841508756192423e+21,5.03601460571419e+20,2.4755989141294215e+22,6.921575150374806e+18,7.01306472616256e+18,6.210989799826342e+18,7.50682229147983,4.79359827617041,8.544763025152678,58.23404584777039,27.745310597288874,71.01309771528621,5.031704565480381e+19,3.794607736600304e+19,3.313946633972652e+20,4.173155425838779e+40,6.017483459009527e+39,8.063979295968662e+42,-9.882555147562642e+41,-1.8536012592232345e+41,-1.812726864852085e+44,0
8.508646866503677e+18,6.182688791048233e+18,8.784115087773193e+18,3.249704098162064e+18,2.2162842559305132e+18,4.664746056375001e+18,4.1290321899337047e+18,2.657094930653527e+18,5.890741549429223e+18,2.4430763239800724e+18,1.5220922675041014e+18,2.6817139530952397e+17,2.3795533769710682e+19,1.2440026543437777e+19,3.187480575660993e+19,6.921575150374806e+18,7.01306472616256e+18,6.210989799826342e+18,0.8973041345131534,0.3039793137711075,1.1255744888916055,1.0105170462320965,-0.750378213207815,1.7868715186961062,8.508646866503679e+18,6.182688791048233e+18,8.784115087773195e+18,8.94459783243716e+37,4.528579415745812e+37,1.1186151387741647e+38,-9.882555147562642e+41,-1.8536012592232345e+41,-1.812726864852085e+44,0
6.438705349137933e+18,5.789744989367424e+18,9.98985504675727e+18,3.0360781059196933e+18,1.799941938254988e+18,3.549934207580839e+18,3.7200995705562573e+18,2.305807411016676e+18,4.798875092817026e+18,9.071869863301842e+17,1.3241078909387356e+18,9.506476419371848e+17,1.8864927780374024e+19,1.3860558096436158e+19,2.515941274577602e+19,6.921575150374806e+18,7.01306472616256e+18,6.210989799826342e+18,0.7326630848938608,0.5679716008713128,0.9523453998624986,0.273475249064548,0.874495251671203,1.0583243474298314,6.438705349137932e+18,5.789744989367424e+18,9.989855046757272e+18,5.5296067387870275e+37,3.883789485860463e+37,1.228264060116814e+38,-9.882555147562642e+41,-1.8536012592232345e+41,-1.812726864852085e+44,0
5.681207180269097e+18,5.165950102415988e+18,1.0008562733520052e+19,2.4769186042829297e+18,2.0464778633525962e+18,3.485065896803044e+18,3.180866157572454e+18,2.579519781551828e+18,4.770646394933651e+18,9.071869863301842e+17,1.9522102342807194e+17,2.570209015965332e+18,1.8864927780374024e+19,1.3860558096436158e+19,2.515941274577602e+19,6.921575150374806e+18,7.01306472616256e+18,6.210989799826342e+18,1.3094940741477958,0.5457663758991521,1.0120615242303217,2.6673011422166173,0.5823053764606994,1.0794443153589741,5.681207180269099e+18,5.165950102415987e+18,1.0008562733520052e+19,4.239402453753088e+37,3.334096276406893e+37,1.2293039501629982e+38,-9.882555147562642e+41,-1.8536012592232345e+41,-1.812726864852085e+44,0
8.002907381854293e+18,6.126584167641525e+18,1.0250697461316198e+19,3.28551257165339e+18,1.9207676619297413e+18,4.0398040942996987e+18,4.1456193230747003e+18,2.343010888466203e+18,5.308424442891477e+18,1.5230735101555205e+18,1.5220922675041014e+18,9.506476419371848e+17,2.3795533769710682e+19,1.2440026543437777e+19,3.187480575660993e+19,6.921575150374806e+18,7.01306472616256e+18,6.210989799826342e+18,0.8889513756527536,0.3946690670707197,1.0612920013462843,1.2507341431743964,-0.3212051290225153,2.338646070943253,8.002907381854293e+18,6.126584167641526e+18,1.0250697461316205e+19,8.123268613438826e+37,4.3024733586667e+37,1.332561685093222e+38,-9.882555147562642e+41,-1.8536012592232345e+41,-1.812726864852085e+44,0
1.079891441037049e+19,1.271963611335263e+19,5.579905704715672e+18,3.7110823194771354e+18,7.717596128208463e+18,1.958868164672389e+18,4.717142547190052e+18,9.514070719390767e+18,2.45802522283257e+18,3.1265259212690964e+18,1.330015285202606e+17,2.6817139530952397e+17,2.719109653034982e+19,4.125468302658583e+19,1.1631241040196303e+19,6.921575150374806e+18,7.01306472616256e+18,6.210989799826342e+18,1.0175007831072025,1.0809190366100465,0.23083525857406,1.2845626711325844,0.8793817797322254,-0.15598657154066586,1.0798914410370494e+19,1.2719636113352626e+19,5.579905704715671e+18,1.3886798625301816e+38,2.52306684509673e+38,3.717723566959959e+37,-9.882555147562642e+41,-1.8536012592232345e+41,-1.812726864852085e+44,0
6.955481569449607e+19,7.095443542486336e+19,4.928407454341733e+18,6.593265219598766e+19,4.668380367049983e+19,3.607469541668514e+18,1.0011841744079607e+20,5.840060031651647e+19,5.685163228860567e+18,7.005354805479568e+18,5.5366938627277926e+17,1.3766450334851625e+18,4.407192352324412e+20,2.2126903321886173e+20,2.4955990818779283e+19,6.921575150374806e+18,7.01306472616256e+18,6.210989799826342e+18,2.574775561847677,1.040915567027991,2.4799431217980654,6.202199440820513,0.11938415731378305,5.189991078181684,6.955481569449607e+19,7.095443542486336e+19,4.928407454341733e+18,1.4861569897144814e+40,8.44516202379061e+39,5.661028097479947e+37,-9.882555147562642e+41,-1.8536012592232345e+41,-1.812726864852085e+44,0
4.884475008286165e+19,4.6308863259739505e+19,3.3055999860342194e+20,6.051803172729099e+19,6.021708453071936e+19,6.432724602557893e+20,1.597017542702577e+20,2.3608414988649215e+20,2.7483267538306655e+21,1.435982063100722e+18,4.455687603134817e+17,3.414452340015903e+17,1.3299511687681275e+21,2.0275958482907483e+21,2.3488368567811834e+22,5.850052087284474e+18,4.3437429177300183e+18,3.72645777469315e+18,7.211124198785338,8.206597185689384,8.307466865079249,54.5637566732996,65.89597305998583,67.0140327278418,4.8844750082861646e+19,4.63088632597395e+19,3.305599986034218e+20,2.7890459927654977e+40,5.788023664403693e+40,7.662569858498097e+42,-6.34353830227342e+41,-1.194733936814156e+42,-1.6405173548751339e+44,0
6.383206270212987e+18,4.894399284965112e+18,5.983092945038702e+18,2.2359220094354076e+18,1.592146839159313e+18,1.9777417841639854e+18,2.702315861290105e+18,1.9076940075625958e+18,2.5097788244266675e+18,1.6378398539770532e+18,9.335475326622305e+17,5.927632377082296e+17,1.4662030129910837e+19,9.363751397608532e+18,1.195692544665559e+19,5.850052087284474e+18,4.3437429177300183e+18,3.72645777469315e+18,0.2912638815593113,-0.09115885489859638,-0.1158057487965339,-0.2656709758310898,-0.7299472463711267,-0.3778018563177139,6.383206270212987e+18,4.894399284965112e+18,5.9830929450387e+18,4.804783330226649e+37,2.7594440787157235e+37,4.2096390936512354e+37,-6.34353830227342e+41,-1.194733936814156e+42,-1.6405173548751339e+44,0
5.018874000874142e+18,3.743567892310622e+18,6.550903142294166e+18,2.2833414246002301e+18,1.5683937159677297e+18,2.657157631473557e+18,2.873998979223177e+18,1.9112600456923945e+18,3.1300828921882015e+18,6.454649691669043e+17,9.263663710109573e+17,1.6046129914598067e+18,1.3604936981542902e+19,8.941916006647536e+18,1.5023237765153948e+19,5.850052087284474e+18,4.3437429177300183e+18,3.72645777469315e+18,0.8432236884506928,0.7330881908738325,0.34108026421043164,0.3821344393826491,-0.31817357053434314,-0.7309745302991812,5.018874000874144e+18,3.7435678923106217e+18,6.550903142294166e+18,3.34489663692263e+37,1.7667215526599086e+37,5.271175089168881e+37,-6.34353830227342e+41,-1.194733936814156e+42,-1.6405173548751339e+44,0
6.710079796642402e+18,3.2836174613156977e+18,5.411604652446768e+18,2.4852235461988424e+18,1.2413500084044808e+18,2.3370199048743035e+18,3.143726800961587e+18,1.5840719795511995e+18,2.8098514684562365e+18,8.137837285457623e+17,2.958456615952712e+17,9.255991434432435e+17,1.5128579182895563e+19,8.941916006647536e+18,1.2122360016077656e+19,5.850052087284474e+18,4.3437429177300183e+18,3.72645777469315e+18,0.5885337464757515,1.0465257043936271,0.7204775457369835,-0.0019185695363805877,1.4038363177633704,-0.25466667829300915,6.710079796642402e+18,3.2836174613156977e+18,5.411604652446769e+18,5.49081890763927e+37,1.3291427668656605e+37,3.718073018916918e+37,-6.34353830227342e+41,-1.194733936814156e+42,-1.6405173548751339e+44,0
5.021120216533138e+18,4.94857230955656e+18,6.534881472550727e+18,2.3924605573596984e+18,1.6255930396087854e+18,2.477116199339904e+18,2.927274277442183e+18,1.939399445028255e+18,3.054274301824383e+18,6.454649691669043e+17,9.335475326622305e+17,5.927632377082296e+17,1.4662030129910837e+19,9.363751397608532e+18,1.5023237765153948e+19,5.850052087284474e+18,4.3437429177300183e+18,3.72645777469315e+18,0.8662604988494633,-0.19611560187842925,0.019118828679761387,0.2715452421232629,-0.7577900606581038,-0.45423336704160233,5.021120216533138e+18,4.948572309556559e+18,6.534881472550729e+18,3.378058292425245e+37,2.8249638110285837e+37,5.20332673710716e+37,-6.34353830227342e+41,-1.194733936814156e+42,-1.6405173548751339e+44,0
8.855890681914928e+18,6.832131618955688e+18,4.989955068183759e+18,2.900745626708438e+18,3.72957395353481e+18,1.5513014752218404e+18,3.8337569557616466e+18,4.681911552056518e+18,1.8599122252613228e+18,1.435982063100722e+18,4.455687603134817e+17,3.414452340015903e+17,2.5796116027462574e+19,1.9395322319328223e+19,9.276673008007064e+18,5.850052087284474e+18,4.3437429177300183e+18,3.72645777469315e+18,1.2865617752737764,1.0779383305310033,-0.00041375391556039155,3.660263517504089,0.4310747717345307,-0.3868682962181045,8.855890681914925e+18,6.832131618955689e+18,4.989955068183758e+18,9.312449216587844e+37,6.859831824001435e+37,2.8358925068169297e+37,-6.34353830227342e+41,-1.194733936814156e+42,-1.6405173548751339e+44,0
7.789478018760501e+19,4.125985177822972e+19,4.145841635621336e+18,5.859600501444056e+19,2.0070407984662233e+19,9.988112310333715e+17,6.753426323916755e+19,2.542023744121407e+19,1.459352547106917e+18,1.2338454916062587e+19,9.98941297249724e+18,2.1921861604151094e+18,2.108361504359014e+20,1.1512917268215156e+20,8.709091715432442e+18,5.850052087284474e+18,4.3437429177300183e+18,3.72645777469315e+18,0.8787326039289828,1.3120318258853851,1.485460687834142,-0.7807453105584363,1.1652969689386383,2.32201503067187,7.789478018760501e+19,4.125985177822973e+19,4.145841635621336e+18,1.062847349173248e+40,2.3485638403291882e+39,1.9317712724398839e+37,-6.34353830227342e+41,-1.194733936814156e+42,-1.6405173548751339e+44,0
5.959179010959151e+19,7.67407925153725e+19,4.431072741887581e+20,6.943306154639795e+19,1.048463219538092e+20,8.581754587667097e+20,2.385774510933807e+20,3.507274340014146e+20,3.6915036840222565e+21,1.316509917219501e+18,1.9640973480199084e+18,8.661786935765596e+17,2.0556083533174703e+21,2.998077705247419e+21,3.176651151917366e+22,1.1430745863087546e+19,7.046246582748985e+18,1.0296047486920874e+19,8.025618724603662,7.930194390123616,8.367394660137052,64.12073399811344,62.95458957536465,68.0134972813293,5.959179010959148e+19,7.674079251537245e+19,4.4310727418875806e+20,6.047038161868007e+40,1.288988821971041e+41,1.382354350558888e+43,-1.2731300028277359e+42,-2.7024846747809375e+42,-2.9070930695399717e+44,0
1.2963249458306355e+19,7.154113596625552e+18,1.0950490869180285e+19,4.842119910720146e+18,3.311900666632523e+18,4.664757215620994e+18,5.848715876284643e+18,3.851093527425424e+18,5.938228907939735e+18,1.539113053328552e+18,8.110175814957343e+17,1.5524602479649843e+18,2.8079029474797896e+19,1.475950940852746e+19,2.9957101495675707e+19,1.1430745863087546e+19,7.046246582748985e+18,1.0296047486920874e+19,0.5053916960173277,0.1628717809736048,0.8570037894403718,-0.41802235173614033,-1.1297383048048866,0.8122107087514072,1.2963249458306353e+19,7.154113596625551e+18,1.0950490869180287e+19,2.0225331391978403e+38,6.601226271040059e+37,1.5517581283909194e+38,-1.2731300028277359e+42,-2.7024846747809375e+42,-2.9070930695399717e+44,0
1.3433730756281866e+19,6.131185703093308e+18,1.7616501561522565e+19,5.147038736776076e+18,2.673186791485177e+18,6.644988755956369e+18,6.60395899724733e+18,3.243945929010362e+18,8.200175013479699e+18,2.920335728297431e+18,1.84584998262614e+17,4.37091718474e+18,3.2351888463821824e+19,1.5522369883163468e+19,3.840554750330553e+19,1.1430745863087546e+19,7.046246582748985e+18,1.0296047486920874e+19,0.7908506895184191,0.26670532719808254,0.8569135554832037,0.3013968979033441,-0.42656609366637355,0.0959307586593301,1.3433730756281866e+19,6.131185703093308e+18,1.7616501561522565e+19,2.2407739646959736e+38,4.81146233161587e+37,3.7758399751882366e+38,-1.2731300028277359e+42,-2.7024846747809375e+42,-2.9070930695399717e+44,0
1.3604314293779964e+19,6.214090942661147e+18,1.947135294366719e+19,5.281114202655078e+18,2.3362539755759406e+18,6.968223928818404e+18,6.477210463699958e+18,2.8731411748080635e+18,8.752569838607399e+18,1.0142259911398523e+18,1.84584998262614e+17,1.3789752833668547e+18,3.2351888463821824e+19,1.3713256648653146e+19,3.840554750330553e+19,1.1430745863087546e+19,7.046246582748985e+18,1.0296047486920874e+19,0.4889329224435494,0.3093641116269573,0.2874280660931261,-0.1891973693712523,-0.08806950458853535,-0.5444368662717336,1.3604314293779964e+19,6.214090942661146e+18,1.947135294366719e+19,2.270316227950101e+38,4.686986645404075e+37,4.557410642365568e+38,-1.2731300028277359e+42,-2.7024846747809375e+42,-2.9070930695399717e+44,0
1.3626631743571094e+19,6.372031841074311e+18,1.5666633184336427e+19,5.453072258455919e+18,2.976055700252544e+18,5.254828581649302e+18,6.709656786697498e+18,3.600283683986782e+18,6.609055861825997e+18,2.920335728297431e+18,7.308774619145416e+17,4.4880511270484337e+18,3.0548264158842937e+19,1.5522369883163468e+19,3.760426547028956e+19,1.1430745863087546e+19,7.046246582748985e+18,1.0296047486920874e+19,0.720675820577009,0.5014667745752808,0.7985865530227129,-0.31013721713314224,-0.47675532065581905,0.592039123343755,1.362663174357109e+19,6.372031841074311e+18,1.5666633184336431e+19,2.307045868701751e+38,5.35648323888463e+37,2.89123014717288e+38,-1.2731300028277359e+42,-2.7024846747809375e+42,-2.9070930695399717e+44,0
1.3785838841477384e+19,8.667119308485437e+18,7.85913593188991e+18,5.20648992518959e+18,3.7357319409971656e+18,3.173821456168066e+18,6.710894122706183e+18,5.136465734704627e+18,3.8240609694306365e+18,1.316509917219501e+18,8.110175814957343e+17,1.250802584315438e+18,4.103781776592723e+19,3.2972865297257734e+19,1.6552250094375029e+19,1.1430745863087546e+19,7.046246582748985e+18,1.0296047486920874e+19,0.8957283785861322,1.5463509245520943,0.39682933279096755,2.0928418014410326,5.15200091224005,-0.6428838006975832,1.3785838841477384e+19,8.667119308485436e+18,7.859135931889909e+18,2.3508545248935888e+38,1.0150223735131585e+38,7.638945989384586e+37,-1.2731300028277359e+42,-2.7024846747809375e+42,-2.9070930695399717e+44,0
4.6108530924526305e+19,5.833412536678795e+19,8.624225990322939e+18,3.37072121438385e+19,5.483081680212547e+19,4.467334315464897e+18,4.971479322397459e+19,8.531400462480238e+19,7.692429055852383e+18,5.411664677987901e+18,5.071387708114806e+18,8.661786935765596e+17,2.2789517897206537e+20,4.344920448793803e+20,4.749862901876496e+19,1.1430745863087546e+19,7.046246582748985e+18,1.0296047486920874e+19,2.2497590080934957,2.902349590947274,3.465944343426431,4.579557078834622,8.652425327744835,14.246768513082081,4.61085309245263e+19,5.833412536678795e+19,8.624225990322938e+18,4.597557289320549e+39,1.0681349567428935e+40,1.3355073871148367e+38,-1.2731300028277359e+42,-2.7024846747809375e+42,-2.9070930695399717e+44,0
3.0519806649235505e+19,4.911534975683382e+19,3.5745109524719436e+20,3.2116442392911245e+19,7.367325108260314e+19,6.967768633057277e+20,9.033504337213288e+19,2.936237758881173e+20,3.0374518068863487e+21,9.014638162859955e+17,1.5306014989955026e+18,2.940143196761395e+17,7.138918702008001e+20,2.5576654880629043e+21,2.6486583469211988e+22,7.139597818387928e+18,3.644376002586461e+18,5.66878326529109e+18,6.401889275749714,8.3196869800188,8.486061565392172,42.84335665953038,68.04061197642167,70.01333419424745,3.0519806649235513e+19,4.911534975683383e+19,3.5745109524719416e+20,9.091878658951849e+39,8.862723934853146e+40,9.353884764650561e+42,-2.404350878241406e+41,-1.8898353032552245e+42,-2.0602666491779865e+44,0
7.155060273297379e+18,4.216162039159087e+18,7.229593567334855e+18,2.9574674907913897e+18,1.7654523463663053e+18,2.4651322243926625e+18,3.84215465726545e+18,2.1816723061093706e+18,3.047742966171628e+18,1.2243677378022605e+18,1.098862369720748e+18,1.583710541074377e+18,2.0343795541775663e+19,9.332506242620455e+18,1.4059453920193001e+19,7.139597818387928e+18,3.644376002586461e+18,5.66878326529109e+18,1.1614517848874346,0.6700082451424219,0.2796741704022438,1.4869480928761094,-0.3644290368258356,-0.6492795998319236,7.155060273297379e+18,4.216162039159086e+18,7.229593567334853e+18,6.5957039924864975e+37,2.2535716391690686e+37,6.155576033669811e+37,-2.404350878241406e+41,-1.8898353032552245e+42,-2.0602666491779865e+44,0
7.505261194673616e+18,3.385001921866502e+18,9.85816854963853e+18,2.7346035387176243e+18,1.291293322234918e+18,3.847117179784294e+18,3.452029097215686e+18,1.5868391741707476e+18,4.986703776847254e+18,1.1943531907605852e+18,1.7636298698283725e+17,1.1015139801423442e+18,1.5921746506494988e+19,7.602231465829458e+18,2.5123736518804525e+19,7.139597818387928e+18,3.644376002586461e+18,5.66878326529109e+18,0.6337147275715848,0.40141190090264495,0.8708740756783584,-0.08803624350849137,-0.42067710363207267,0.9188925618585388,7.505261194673613e+18,3.3850019218665016e+18,9.858168549638531e+18,6.824545048829734e+37,1.3976296575722808e+37,1.220507017111049e+38,-2.404350878241406e+41,-1.8898353032552245e+42,-2.0602666491779865e+44,0
9.34042365635121e+18,3.5885952018311153e+18,9.704328716058892e+18,3.778405268523203e+18,1.4403604325425782e+18,4.115441230716035e+18,4.783062453151522e+18,1.7634531826991557e+18,5.231770798263936e+18,1.1943531907605852e+18,2.5914858724606182e+17,2.221182863546751e+18,2.333883121280625e+19,8.31133609654092e+18,2.5123736518804525e+19,7.139597818387928e+18,3.644376002586461e+18,5.66878326529109e+18,0.8049461778479514,0.5898701313887879,0.793457647727639,0.46086905266164147,-0.12410518967160389,0.44123593275437356,9.34042365635121e+18,3.588595201831114e+18,9.70432871605889e+18,1.1012120051087316e+38,1.5987782650177074e+37,1.215454215148924e+38,-2.404350878241406e+41,-1.8898353032552245e+42,-2.0602666491779865e+44,0
6.686878065312307e+18,3.5336899817387e+18,7.292512081298502e+18,2.2822215877249623e+18,1.3419494760239793e+18,2.832133300640162e+18,2.8666433137795697e+18,1.6505500171823022e+18,3.491201356670874e+18,1.2243677378022605e+18,1.7636298698283725e+17,1.1015139801423442e+18,1.5402569487378022e+19,7.911787785205294e+18,1.4887677386433184e+19,7.139597818387928e+18,3.644376002586461e+18,5.66878326529109e+18,0.6031921876776349,0.5132263071804186,0.3333743615247664,0.30213255559020924,-0.257866315905265,-0.6611523136317183,6.686878065312307e+18,3.5336899817387e+18,7.292512081298501e+18,5.293198214879198e+37,1.5211280246260945e+37,6.536921936870514e+37,-2.404350878241406e+41,-1.8898353032552245e+42,-2.0602666491779865e+44,0
1.087419916385743e+19,6.161356943238666e+18,5.922540120050297e+18,3.898515217294258e+18,2.407302217986829e+18,2.4920625465532554e+18,4.74190784942355e+18,3.2603990584629893e+18,3.011483538425051e+18,9.014638162859955e+17,1.5306014989955026e+18,2.940143196761395e+17,2.1846748192870457e+19,1.9716553241901257e+19,1.3668743430077086e+19,7.139597818387928e+18,3.644376002586461e+18,5.66878326529109e+18,0.01805066545200243,1.7575210850763787,0.3856384298183901,-0.6024105822519505,4.605697083458943,-0.2929377079368245,1.087419916385743e+19,6.161356943238666e+18,5.922540120050297e+18,1.407338975076623e+38,4.859252140242168e+37,4.414551457581045e+37,-2.404350878241406e+41,-1.8898353032552245e+42,-2.0602666491779865e+44,0
3.8262685108815045e+19,3.1303028340991955e+19,3.8667951550085944e+18,3.697428665012348e+19,2.5705255650226676e+19,2.1906646995637824e+18,6.969913117822819e+19,5.450372444697815e+19,4.775032405944762e+18,4.3080237313839903e+18,2.2042031994209295e+18,3.7599051014970675e+17,3.5105865227034395e+20,2.9405383791106366e+20,2.6610584811828716e+19,7.139597818387928e+18,3.644376002586461e+18,5.66878326529109e+18,3.6595926738370297,4.2789832850826315,4.1082985885934225,13.011030453768125,17.792777979123077,16.836560153830995,3.8262685108815045e+19,3.1303028340991947e+19,3.8667951550085944e+18,6.322001958736198e+39,3.950535561909069e+39,3.775303924862057e+37,-2.404350878241406e+41,-1.8898353032552245e+42,-2.0602666491779865e+44,0
7.595350228972785e+22,5.322906785026142e+22,2.9571471598422605e+23,4.8079402947707534e+22,3.914886215917706e+22,4.663843635915414e+23,1.5698670350786875e+23,1.698433832378813e+23,4.841384369423647e+24,7.92950035695272e+17,1.9158149151767108e+20,3.255646639809606e+21,2.6467611192433594e+24,2.887313496451078e+24,1.0056835288816547e+26,4.088826563042692e+22,2.7836815630125433e+22,3.960829683881162e+22,11.973933698883881,13.287526662992516,20.661774375962075,174.85598753446823,197.20769925721376,424.94017648110787,7.595350228972785e+22,5.322906785026143e+22,2.9571471598422612e+23,3.0413759588343185e+46,3.1680108493897547e+46,2.352644980574924e+49,-2.2414152075102465e+48,-2.181485576693971e+48,-1.2298536464682913e+51,0
2.5451761775501944e+22,1.2179238362959676e+22,2.4670454485204783e+22,9.328940231575194e+21,5.631567753528986e+21,1.1174182385789107e+22,1.1770025921735167e+22,7.087935012025205e+21,1.3749444784098673e+22,3.288812741744803e+20,7.526991496488786e+19,4.0127994316161496e+20,5.947243192266991e+22,3.610530422374783e+22,7.412859777628963e+22,4.088826563042692e+22,2.7836815630125433e+22,3.960829683881162e+22,0.32290212653316663,0.5861742853012,0.555936436115242,-0.044937672037227205,0.10517896306117214,-0.10965914407871535,2.5451761775501977e+22,1.2179238362959665e+22,2.4670454485204804e+22,7.863256876752212e+44,1.985726698364812e+44,7.976785563775399e+44,-2.2414152075102465e+48,-2.181485576693971e+48,-1.2298536464682913e+51,0
4.110918650808671e+22,2.4817561782028192e+22,4.237461131642478e+22,1.7995892875612289e+22,9.888009319406172e+21,1.7071385566803585e+22,2.211609450694893e+22,1.2261521799719269e+22,2.1144954477325597e+22,7.92950035695272e+17,1.2492479539920094e+21,4.0062440044328963e+21,1.0798722929021621e+23,6.590535676394664e+22,1.0192371629908993e+23,4.088826563042692e+22,2.7836815630125433e+22,3.960829683881162e+22,0.3832316994282285,0.515198548670918,0.5177128196130917,-0.2388635940293513,0.05583022617858946,-0.046119313175295495,4.110918650808671e+22,2.4817561782028176e+22,4.2374611316424785e+22,2.1790868515969553e+45,7.662562896497765e+44,2.2427167840662466e+45,-2.2414152075102465e+48,-2.181485576693971e+48,-1.2298536464682913e+51,0
5.211048232169247e+22,4.3596474262470875e+22,5.893538519609085e+22,1.719790117505006e+22,1.80921421796799e+22,2.91284758883072e+22,2.239997498536142e+22,2.355746446123203e+22,3.3864383281991575e+22,1.1311610770447107e+21,1.9233820941612926e+21,1.3757306537373837e+22,9.511784131196931e+22,1.0239090244120183e+23,1.2707510839269652e+23,4.088826563042692e+22,2.7836815630125433e+22,3.960829683881162e+22,-0.3182187060103558,0.7564710927660513,0.5532214699961245,-0.028370410366124865,0.30337771904472044,-0.9161159716872374,5.2110482321692485e+22,4.3596474262470875e+22,5.893538519609085e+22,3.2172612471442425e+45,2.455606699960496e+45,4.6201760832812345e+45,-2.2414152075102465e+48,-2.181485576693971e+48,-1.2298536464682913e+51,0
6.28503529509144e+22,4.040900673861221e+22,7.903751733979592e+22,2.2248501453057014e+22,1.6625627222411674e+22,2.8961247422506663e+22,2.6109253599156314e+22,2.0670035972997727e+22,3.765058037204193e+22,1.8400091854991041e+22,1.9158149151767108e+20,2.6331292461640085e+22,1.1047842436332202e+23,8.133100542979934e+22,1.9365847875335776e+23,4.088826563042692e+22,2.7836815630125433e+22,3.960829683881162e+22,0.2701116693700572,-0.11881901656148124,1.0170192365088078,-1.0624667497636804,-0.5992476132850215,1.093146443589787,6.2850352950914404e+22,4.040900673861221e+22,7.903751733979592e+22,4.631859989559571e+45,2.060138212726227e+45,7.66449534959013e+45,-2.2414152075102465e+48,-2.181485576693971e+48,-1.2298536464682913e+51,0
8.39865173342231e+22,5.36455988184675e+22,9.038158300755761e+22,3.130021432763942e+22,2.019978385404395e+22,3.9523430542957366e+22,4.0655067575555686e+22,2.50260232469188e+22,4.9035462907633745e+22,1.1838601687613078e+21,6.078328272828874e+21,1.1960900154154585e+22,2.2744670453114216e+23,1.3501884614119552e+23,2.7159775453131033e+23,4.088826563042692e+22,2.7836815630125433e+22,3.960829683881162e+22,0.7542049091284281,0.4746342604159592,0.7584451208796356,1.1304168984189964,0.08061467292286384,0.7000560213360125,8.398651733422315e+22,5.364559881846753e+22,9.038158300755766e+22,8.706569613504767e+45,3.5041521121472834e+45,1.0573307169517962e+46,-2.2414152075102465e+48,-2.181485576693971e+48,-1.2298536464682913e+51,0
5.305487167776584e+23,4.365336965034846e+23,3.489001614036508e+22,3.0806392366429095e+23,3.9670720995755486e+23,1.876664077297123e+22,3.5772673976194116e+23,5.075430349308267e+23,2.089531492682544e+22,1.1927581418199035e+23,8.218405949813028e+22,3.255646639809606e+21,1.1520692204694425e+24,1.51561411704335e+24,6.195462988912869e+22,4.088826563042692e+22,2.7836815630125433e+22,3.960829683881162e+22,0.5499773576645751,1.3092020920601375,-0.19522029922927034,-1.1920742198212502,0.03336582169526414,-1.4195615060964875,5.305487167776584e+23,4.365336965034846e+23,3.489001614036508e+22,4.0945036121512754e+47,4.481616004897907e+47,1.65392741216615e+45,-2.2414152075102465e+48,-2.181485576693971e+48,-1.2298536464682913e+51,0
4.115259583692776e+22,6.454812309509106e+22,2.3924548091272715e+23,2.5400953039848278e+22,7.980756686953211e+22,3.916813673057305e+23,7.483446241827078e+22,5.9974779596643224e+23,4.070590523379161e+24,9.582508445574858e+20,9.04527307607401e+20,2.196056642782693e+21,1.3674587600272183e+24,1.2422330055582077e+25,8.464658013529766e+25,2.3660653986322835e+22,1.853720235325997e+22,3.3209958903490145e+22,13.657846228208248,20.30378313755526,20.68657238140795,229.3932849391574,415.2313366911253,425.9570539714683,4.1152595836927765e+22,6.454812309509106e+22,2.3924548091272725e+23,7.293732909549105e+45,3.6386387896169224e+47,1.6626945609161382e+49,-5.210036443243637e+47,-1.904476511208162e+49,-8.865216462262629e+50,0
1.2722904314902401e+22,8.604996542480672e+21,1.3640239255271116e+22,5.212645123159114e+21,4.0522288306910197e+21,5.896110512331054e+21,6.395442049463825e+21,5.109399143856743e+21,7.342967505881195e+21,4.145840343337476e+20,1.6780063640390572e+20,1.0468314513699945e+21,3.1903346800749183e+22,2.416701081995449e+22,4.067731917530417e+22,2.3660653986322835e+22,1.853720235325997e+22,3.3209958903490145e+22,0.1575344611599293,0.7627554050575656,0.7712161187195836,-0.42249602372261563,0.13549653908310777,0.3977834330829637,1.2722904314902393e+22,8.604996542480665e+21,1.3640239255271116e+22,2.02773973214212e+44,1.0015192510734819e+44,2.3997529873346624e+44,-5.210036443243637e+47,-1.904476511208162e+49,-8.865216462262629e+50,0
2.3510728614589996e+22,1.2517060229163297e+22,2.3736998823347085e+22,9.74660280795157e+21,5.423438394996349e+21,1.1469533404779308e+22,1.2086430934441721e+22,6.791968097531072e+21,1.4035060543241268e+22,9.582508445574858e+20,9.04527307607401e+20,2.196056642782693e+21,5.796330167214778e+22,3.281971781125281e+22,6.806009482139716e+22,2.3660653986322835e+22,1.853720235325997e+22,3.3209958903490145e+22,0.3901700906097717,0.6823972674293366,0.8491791010899713,-0.42636070925403047,0.02446085013065158,0.07110476070712135,2.351072861458999e+22,1.2517060229163299e+22,2.3736998823347085e+22,6.9883617272193024e+44,2.028076274183814e+44,7.604280375920289e+44,-5.210036443243637e+47,-1.904476511208162e+49,-8.865216462262629e+50,0
3.6004673996407123e+22,2.7576877874089235e+22,4.436589969942465e+22,1.2391781951989212e+22,7.030039091019148e+21,1.7721182742131367e+22,1.5208206962380985e+22,8.878637268215184e+21,2.061716922564576e+22,3.439514472841583e+21,9.103598105281649e+21,9.425410519398296e+21,5.95084610579777e+22,4.467309112430953e+22,8.410597572224355e+22,2.3660653986322835e+22,1.853720235325997e+22,3.3209958903490145e+22,-0.2872344306979481,-0.3230129926364568,0.41301274114888203,-0.7519278607133115,-0.40935414266765546,-1.0656605302270175,3.6004673996407127e+22,2.757687787408924e+22,4.436589969942466e+22,1.5276261085981693e+45,8.393143930229725e+44,2.393400723018324e+45,-5.210036443243637e+47,-1.904476511208162e+49,-8.865216462262629e+50,0
3.4409062510305527e+22,2.706999823005353e+22,5.218230948941821e+22,1.4231553924718177e+22,7.993813017531988e+21,1.7879494782761967e+22,1.7943647923801457e+22,1.0514977790907057e+22,2.1929524188963918e+22,1.0769418897788334e+21,4.20971704570065e+21,1.2540564952221926e+22,7.898832066962166e+22,5.8960266249767355e+22,1.0751372375797095e+23,2.3660653986322835e+22,1.853720235325997e+22,3.3209958903490145e+22,0.48128206164792575,0.11011156643753071,0.27661158001170655,-0.34481578342771346,0.19963673393838643,-0.51912384221438,3.4409062510305527e+22,2.706999823005353e+22,5.2182309489418214e+22,1.505958083651458e+45,8.433495621183698e+44,3.203897454803779e+45,-5.210036443243637e+47,-1.904476511208162e+49,-8.865216462262629e+50,0
5.803018714955313e+22,6.22228573706519e+22,7.774239514638211e+22,2.0912833185890032e+22,3.4352196465306162e+22,2.5130823273186868e+22,2.616651199686375e+22,4.5617874782225326e+22,3.0601414229827252e+22,1.1768645569217007e+22,2.0464566092278693e+21,7.954956553938302e+21,1.2387299448850048e+23,2.292119499659429e+23,1.4678775994590573e+23,2.3660653986322835e+22,1.853720235325997e+22,3.3209958903490145e+22,0.47727095281846954,1.3191686890943601,0.13931331669271135,-0.24295137267876665,2.046619541554188,-0.5761287564995428,5.8030187149553136e+22,6.22228573706519e+22,7.774239514638211e+22,4.052188970694176e+45,5.952674479015279e+45,6.980326555961688e+45,-5.210036443243637e+47,-1.904476511208162e+49,-8.865216462262629e+50,0
2.1349591483386666e+23,4.099620958531907e+23,6.478819882739827e+22,8.498562359009186e+22,9.380933391911407e+22,1.2522271157401959e+22,1.1676394737532475e+23,1.3178125782002869e+23,1.4412097556637765e+22,5.033607927198444e+22,2.878824505135785e+23,4.104846887130475e+22,4.6713745073394885e+23,7.641343936552258e+23,8.69644963416352e+22,2.3660653986322835e+22,1.853720235325997e+22,3.3209958903490145e+22,0.7055641520497457,1.756350670277237,-0.06582014355149028,0.0407590064943979,2.373893812504056,-1.1942428710400308,2.1349591483386666e+23,4.099620958531907e+23,6.478819882739829e+22,5.921432505741723e+46,1.854352199489696e+47,4.405219263280537e+45,-5.210036443243637e+47,-1.904476511208162e+49,-8.865216462262629e+50,0
1.0024816360831507e+20,1.1226365177088695e+20,6.247345084435176e+20,7.78632174033205e+19,1.1602243037304803e+20,1.0786679936753373e+21,3.189316016985374e+20,6.805811300048036e+20,7.815950027116112e+21,3.255323884524282e+18,2.589802605804639e+18,6.182561637009998e+18,4.523245731028794e+21,9.854997889914352e+21,1.133455398475162e+23,4.780798906229181e+19,3.867284135144897e+19,5.672082416914791e+19,12.854505959847788,14.042702613475313,14.35193102910494,174.1812815874204,197.94167925247223,203.98696686929773,1.0024816360831508e+20,1.12263651770887e+20,6.247345084435169e+20,1.1176706086883401e+41,4.757938020275502e+41,6.147936803241645e+43,-6.258466802568637e+42,-2.4404732713011374e+43,-3.2356208697586764e+45,0
4.104013400758282e+19,2.4357071505436054e+19,5.4503662010837295e+19,1.390509688394531e+19,1.0631292466640384e+19,1.9076975244794905e+19,1.7093850281355727e+19,1.2942945168087226e+19,2.3659010308668277e+19,9.798645832912544e+18,8.24417570632024e+17,5.123340677457093e+18,7.784846614216612e+19,5.425117628148003e+19,1.0803569017014845e+20,4.780798906229181e+19,3.867284135144897e+19,5.672082416914791e+19,0.10942000719930761,0.21456522789415294,0.10260738676719672,-0.6420535574099455,-0.5644978296415228,-0.4833806043127624,4.104013400758282e+19,2.4357071505436054e+19,5.4503662010837295e+19,1.9764923168017613e+39,7.607867619450374e+38,3.5303979413772596e+39,-6.258466802568637e+42,-2.4404732713011374e+43,-3.2356208697586764e+45,0
3.1753475140831515e+19,2.431859896168825e+19,4.766283498880834e+19,1.472242060819864e+19,8.711463416705864e+18,2.1300678637217583e+19,1.7152700022798467e+19,1.0660517070873072e+19,2.4569415350829605e+19,1.9204890200387748e+18,8.24417570632024e+17,5.123340677457093e+18,7.784846614216612e+19,5.425117628148003e+19,9.799142759891909e+19,4.780798906229181e+19,3.867284135144897e+19,5.672082416914791e+19,0.2523442247656391,0.16188048196412783,0.29216348768376155,-0.7945603148038325,-0.4864675814210755,-1.0864825570166092,3.1753475140831515e+19,2.4318598961688252e+19,4.766283498880832e+19,1.3024983015915157e+39,7.050408796778013e+38,2.8754020098519525e+39,-6.258466802568637e+42,-2.4404732713011374e+43,-3.2356208697586764e+45,0
4.218690793460861e+19,2.9471827298184045e+19,5.438187436414913e+19,1.589943915341562e+19,1.2134688592643926e+19,2.4693700260057575e+19,1.9822331850860257e+19,1.5147454689613634e+19,3.140444578333021e+19,3.255323884524282e+18,2.651176104798675e+18,6.182561637009998e+18,9.089585436674173e+19,7.349972418915718e+19,1.339607233644489e+20,4.780798906229181e+19,3.867284135144897e+19,5.672082416914791e+19,0.3584616065002294,0.5525444717310328,0.7623123504606367,-0.33312336271064114,0.008969625706589657,0.022544765997161598,4.2186907934608605e+19,2.9471827298184045e+19,5.4381874364149146e+19,2.1726600410887702e+39,1.098033987867884e+39,3.943627474316228e+39,-6.258466802568637e+42,-2.4404732713011374e+43,-3.2356208697586764e+45,0
4.123123542105361e+19,3.7081544040074535e+19,6.783993191712062e+19,1.3243724668434082e+19,1.7036087912305652e+19,2.384631573458908e+19,1.8405778797557504e+19,2.075210198600689e+19,2.846344133814328e+19,1.5351450141547782e+19,7.776164361458778e+18,6.253746569989665e+18,1.0107944986094469e+20,9.550159954990491e+19,1.1926582981108112e+20,4.780798906229181e+19,3.867284135144897e+19,5.672082416914791e+19,1.6302155813891164,0.9527339092179741,-0.06961720529626221,2.9109648846223237,0.618800828553463,-0.6896594175895876,4.123123542105361e+19,3.708154404007453e+19,6.78399319171206e+19,2.038787467490963e+39,1.805690645233618e+39,5.4124238553294825e+39,-6.258466802568637e+42,-2.4404732713011374e+43,-3.2356208697586764e+45,0
6.590364685961342e+19,5.593088897007639e+19,8.42244512674976e+19,2.599969840320402e+19,2.2897863947716055e+19,4.2382141690020045e+19,3.34512454108319e+19,2.884633651883813e+19,5.211523039845569e+19,1.2943832869243636e+19,2.589802605804639e+18,7.53904244080264e+18,1.7562537811452507e+20,1.3950402633136325e+20,2.910756923936802e+20,4.780798906229181e+19,3.867284135144897e+19,5.672082416914791e+19,0.9457595781930146,0.4954267373212992,0.9397489060094225,1.009470306411533,-0.1946472508944641,1.039511585828639,6.590364685961344e+19,5.593088897007637e+19,8.422445126749759e+19,5.46227648893234e+39,3.960375471541068e+39,9.8097554307952e+39,-6.258466802568637e+42,-2.4404732713011374e+43,-3.2356208697586764e+45,0
1.6995304865282087e+20,1.3654471598956057e+20,1.1435543213798279e+20,1.0056945535510826e+20,1.0296359482538607e+20,4.799143191195586e+19,1.5720551353556235e+20,1.5983671642895683e+20,5.5016791561373745e+19,2.5751746555617333e+19,1.2880009970756243e+19,1.9984071046107177e+19,8.494027792879743e+20,7.317868813360941e+20,2.251576539707854e+20,4.780798906229181e+19,3.867284135144897e+19,5.672082416914791e+19,2.71574558842241,2.4022310419968353,0.1801002866554248,8.042412443709622,4.8877792993463025,-1.109751542189494,1.699530486528209e+20,1.3654471598956054e+20,1.1435543213798275e+20,5.359761223236799e+40,4.419223538346051e+40,1.6104012213172426e+40,-6.258466802568637e+42,-2.4404732713011374e+43,-3.2356208697586764e+45,0
1.8670054593076825e+20,1.972682454152469e+20,1.0505269566873271e+21,1.4549343995946544e+20,2.135664499722837e+20,1.8082896386837882e+21,4.61346068787735e+20,1.2532423118875444e+21,1.5764653457516043e+22,6.699907274939138e+18,1.7573584125959045e+18,1.2862076506869187e+19,7.528262140273792e+21,2.107457420590334e+22,2.750064072172814e+23,1.396183660965809e+20,7.557230423374681e+19,1.0030665759625203e+20,13.562703670755509,15.546978447352084,17.319727957450475,209.4165459746973,252.4016806926798,297.9831486866313,1.867005459307685e+20,1.9726824541524722e+20,1.0505269566873268e+21,2.476972890367445e+41,1.6095310529544467e+42,2.4962790552229924e+44,-2.001760834400658e+43,-1.1580013048632345e+44,-1.7332243339749587e+46,0
5.113299121979864e+19,5.864587400413176e+19,1.3313877860315714e+20,2.0794848163934863e+19,2.000314201669393e+19,4.843191930204079e+19,2.400552549286689e+19,2.293768379431354e+19,5.5157142016379806e+19,1.6411271230554542e+19,1.851991144072931e+19,2.336763174190313e+19,9.650998060393677e+19,1.0245124236073851e+20,2.1901568928463104e+20,1.396183660965809e+20,7.557230423374681e+19,1.0030665759625203e+20,0.3999544231354946,0.05807667410969442,-0.09078746721173785,-1.0176132172322445,-0.985049313574133,-0.9303620857525172,5.113299121979864e+19,5.864587400413176e+19,1.3313877860315713e+20,3.190848045272687e+39,3.9654758755564106e+39,2.0768244683355581e+40,-2.001760834400658e+43,-1.1580013048632345e+44,-1.7332243339749587e+46,0
5.51007886280132e+19,4.603957504292921e+19,1.0667662126428452e+20,1.9816903627291124e+19,2.1298366417163514e+19,3.6124968303884685e+19,2.457915962266944e+19,2.4644640914530726e+19,4.327734702287981e+19,2.5946535326347035e+19,1.1508517735346766e+19,3.425744253166455e+19,1.2110120232710416e+20,9.244702905537285e+19,1.9058333266608774e+20,1.396183660965809e+20,7.557230423374681e+19,1.0030665759625203e+20,0.9367799958655967,0.6266348931158724,0.28817225820366416,0.36920700095526593,-0.8920807580326064,-0.8509877688148153,5.51007886280132e+19,4.603957504292921e+19,1.0667662126428452e+20,3.640231995185653e+39,2.727000795939671e+39,1.3252830289702368e+40,-2.001760834400658e+43,-1.1580013048632345e+44,-1.7332243339749587e+46,0
7.506847152087663e+19,5.8944022306596495e+19,9.78888437047422e+19,3.1438262626442723e+19,2.5037240928308273e+19,3.40316111580502e+19,3.944355512469008e+19,3.0406479681339736e+19,4.392159050289853e+19,6.699907274939138e+18,9.362679336041644e+18,1.2862076506869187e+19,1.8850221503781175e+20,1.5080175437673218e+20,2.3449472941607433e+20,1.396183660965809e+20,7.557230423374681e+19,1.0030665759625203e+20,0.6074993823195279,0.5843043726415669,0.6026706110407466,-0.07771313225477705,-0.3137187607780296,0.2348767540906298,7.506847152087661e+19,5.89440223065965e+19,9.78888437047422e+19,7.19106945735513e+39,4.398951772292273e+39,1.151133183415575e+40,-2.001760834400658e+43,-1.1580013048632345e+44,-1.7332243339749587e+46,0
1.2768016267297528e+20,6.505295417298159e+19,1.2167732228663942e+20,5.69480527299948e+19,2.3556132771083104e+19,3.809241675465226e+19,6.320024774824327e+19,3.0011655667887768e+19,5.051859520818078e+19,2.369048167616259e+19,1.485251035494173e+19,3.9352563218278064e+19,2.241125325871156e+20,1.4112154862307702e+20,2.6322370823850793e+20,1.396183660965809e+20,7.557230423374681e+19,1.0030665759625203e+20,-0.04587446269813968,0.5788638707650952,0.8408813288649871,-1.4238023676802845,-0.018010063563975276,0.6797672066307956,1.2768016267297528e+20,6.505295417298161e+19,1.216773222866394e+20,2.029649525563676e+40,5.1325863225599045e+39,1.7357499220654737e+40,-2.001760834400658e+43,-1.1580013048632345e+44,-1.7332243339749587e+46,0
1.6489091066484382e+20,1.178094090332348e+20,1.2976889506719964e+20,7.949483779131018e+19,4.736748676148658e+19,5.076750601399491e+19,9.478145858647754e+19,5.6532168873229435e+19,6.501893298132814e+19,8.139142103032496e+18,2.012725528075828e+19,1.890128606172653e+19,3.771810065589361e+20,2.6469767499085405e+20,3.371669133950875e+20,1.396183660965809e+20,7.557230423374681e+19,1.0030665759625203e+20,0.34372592781934314,0.3062184789610976,0.8696273924948907,-0.884012500204475,-0.5008553085218703,0.803679335344885,1.6489091066484382e+20,1.1780940903323474e+20,1.2976889506719962e+20,3.617253731166167e+40,1.7074942974271343e+40,2.10674277729923e+40,-2.001760834400658e+43,-1.1580013048632345e+44,-1.7332243339749587e+46,0
3.2593381335471954e+20,2.7416951968909984e+20,2.332286081957437e+20,1.5509936227364005e+20,2.2517689497676975e+20,8.74155005090286e+19,2.700223722260664e+20,6.475138194410461e+20,1.0787871793729697e+20,2.2537300415008973e+19,1.7573584125959045e+18,2.2105964345650352e+19,1.772315873009641e+21,5.695878923157683e+21,5.222168021276165e+20,1.396183660965809e+20,7.557230423374681e+19,1.0030665759625203e+20,3.1849895294589348,7.155729889065844,0.31484976386972036,12.14974968688221,55.39394245996778,-0.4048296229342192,3.259338133547195e+20,2.7416951968909984e+20,2.3322860819574374e+20,1.791449321905415e+41,4.944430718936833e+41,6.603340146471861e+40,-2.001760834400658e+43,-1.1580013048632345e+44,-1.7332243339749587e+46,0
3.275883717663628e+19,4.439011200692691e+19,2.426627601916999e+20,1.5490216522080664e+19,3.615340560454488e+19,4.041583505289931e+20,3.3745813147974025e+19,1.1264622724120655e+20,2.3740795567248947e+21,4.2845000479686984e+18,2.3006570621403587e+18,1.931090189303888e+18,3.367395528164387e+20,1.2170018279565684e+21,2.792750977142774e+22,1.6107617345200892e+19,1.6177371548637393e+19,2.4758149160297193e+19,6.076546001100617,8.751399415203592,11.574321545698172,47.460981928712144,84.6016680262829,131.97926476803835,3.2758837176636297e+19,4.43901120069269e+19,2.4266276019169994e+20,2.2119213181833447e+39,1.4659654555665059e+40,5.695138956842926e+42,-1.5076561553239193e+41,-7.087713652889975e+41,-2.2805251077268584e+44,0
1.785962116368625e+19,1.363853075611135e+19,3.0141554325227598e+19,6.61037105558056e+18,5.709906550892398e+18,9.623922037761825e+18,8.07962655183898e+18,6.770540488441846e+18,1.214412726529689e+19,2.8701075235664246e+18,9.837572155006136e+17,4.496819939284005e+18,3.418320173529042e+19,2.6169609048825545e+19,5.439262671920108e+19,1.6107617345200892e+19,1.6177371548637393e+19,2.4758149160297193e+19,0.5765929323708219,0.0759754126075452,-0.033723574794812985,-0.5313053671216497,-0.87298031400129,-0.3486782954356902,1.785962116368625e+19,1.3638530756111356e+19,3.0141554325227598e+19,3.842464333275712e+38,2.3184973969102563e+38,1.0559931241763743e+39,-1.5076561553239193e+41,-7.087713652889975e+41,-2.2805251077268584e+44,0
1.5098918391766569e+19,1.2094813076882289e+19,2.0685104315762786e+19,5.934098812858023e+18,4.5142019996429865e+18,7.514507189332157e+18,7.320393854117136e+18,5.675702706995603e+18,8.951183316034877e+18,1.2263998548302438e+17,1.3390638475641897e+18,4.1858057650727895e+18,3.1501434939209482e+19,3.027905635857176e+19,4.104055523425347e+19,1.6107617345200892e+19,1.6177371548637393e+19,2.4758149160297193e+19,0.01878527054271554,0.5815574157976822,0.24472969033838496,-0.5402254274591423,0.12957132921568615,-0.632565712262195,1.5098918391766567e+19,1.2094813076882287e+19,2.0685104315762786e+19,2.815655027806224e+38,1.784981045829199e+38,5.079972233112497e+38,-1.5076561553239193e+41,-7.087713652889975e+41,-2.2805251077268584e+44,0
1.2989334609922007e+19,1.2023736913520517e+19,1.451099382632799e+19,5.534958280731132e+18,4.955962414091843e+18,5.912062094207518e+18,6.662358423574924e+18,6.206503235162135e+18,7.31134135103958e+18,1.2263998548302438e+17,1.3390638475641897e+18,4.1858057650727895e+18,2.2695264442982072e+19,3.027905635857176e+19,3.118329698568219e+19,1.6107617345200892e+19,1.6177371548637393e+19,2.4758149160297193e+19,-0.47877931042102173,0.5919092393085398,0.8308470645397734,-0.8232796094337584,0.5031486656622244,-0.07562072916832108,1.2989334609922007e+19,1.2023736913520517e+19,1.4510993826327986e+19,2.131098333726975e+38,1.8309093177363387e+38,2.6402465417915022e+38,-1.5076561553239193e+41,-7.087713652889975e+41,-2.2805251077268584e+44,0
2.1429745896474653e+19,1.5100777103795884e+19,2.4010983129792315e+19,7.706714428822067e+18,4.842073000002794e+18,9.481819485259504e+18,9.072803449632665e+18,5.988501108646034e+18,1.1581606612280734e+19,2.8701075235664246e+18,9.837572155006136e+17,1.931090189303888e+18,4.319903677904432e+19,3.2345865434666918e+19,5.439262671920108e+19,1.6107617345200892e+19,1.6177371548637393e+19,2.4758149160297193e+19,0.13068507227862905,-0.012382410615926702,0.18342629555374318,-0.8659967741575905,-0.2050209604677491,-0.3496868217585778,2.1429745896474644e+19,1.510077710379589e+19,2.4010983129792328e+19,5.415497716231383e+38,2.6389561466678096e+38,7.106609225807963e+38,-1.5076561553239193e+41,-7.087713652889975e+41,-2.2805251077268584e+44,0
3.0365349519920595e+19,3.8710786328630624e+19,5.889270188785329e+19,8.577128629853612e+18,1.153781396686344e+19,1.5209416730428393e+19,1.0709419628642894e+19,1.6567620815570917e+19,1.9304500882729615e+19,1.0947353935906376e+19,8.577561918110164e+18,1.3586340443924333e+19,5.786674342808338e+19,1.0361983899478648e+20,9.17965878713946e+19,1.6107617345200892e+19,1.6177371548637393e+19,2.4758149160297193e+19,0.5946916597329984,1.7760462505130006,-0.6394029075150324,-0.17053571522941802,4.924504715676439,-0.24289049817442887,3.0365349519920603e+19,3.8710786328630624e+19,5.889270188785328e+19,1.0367461202493042e+39,1.773011037669433e+39,3.841014089982866e+39,-1.5076561553239193e+41,-7.087713652889975e+41,-2.2805251077268584e+44,0
1.0498581045422775e+20,1.9661941492092315e+20,2.2390774378596676e+19,2.917200609497206e+19,1.0369020275648124e+20,4.0768847745302856e+18,3.154816586045714e+19,1.3348933369977741e+20,4.971896987348478e+18,5.811553419166297e+19,6.9197500176874865e+19,1.4942594408990476e+19,1.4685311253870253e+20,4.874336628210546e+20,3.160482813598902e+19,1.6107617345200892e+19,1.6177371548637393e+19,2.4758149160297193e+19,0.00411392459385999,1.2780771251542498,0.3881138307593897,-1.5113929701782955,0.4139141599423559,-0.5167017155039328,1.0498581045422775e+20,1.9661941492092315e+20,2.2390774378596676e+19,1.201730716588995e+40,5.647859653545666e+40,5.260665369260263e+38,-1.5076561553239193e+41,-7.087713652889975e+41,-2.2805251077268584e+44,0
3.2213143582506536e+21,3.5314118059368503e+21,1.5571595127101145e+22,2.708891198406022e+21,3.8110416291681786e+21,2.539408840470237e+22,7.741711387074351e+21,2.0704019859153195e+22,2.6604054693614202e+23,8.991774329171608e+18,3.4444983092478673e+19,2.038457322177495e+20,1.2840172668349112e+23,4.071912417372413e+23,5.576876955756923e+24,2.127189198032856e+21,1.4537853009494834e+21,2.4834654652086427e+21,11.475905742779775,17.49565004403498,20.854999929868892,164.32742450158307,330.0641202054283,432.9548719266029,3.221314358250651e+21,3.5314118059368545e+21,1.5571595127101162e+22,7.031096139542846e+43,4.411273076713202e+44,7.102004718888395e+46,-7.039038479934583e+45,-3.4937960972121875e+46,-5.164722478801533e+48,0
1.0668347090289225e+21,8.593959022194427e+20,1.595152647539612e+21,4.646004890596216e+20,3.60145938269628e+20,6.916826356177905e+20,6.041326100246638e+20,4.5169709655504244e+20,8.8159534271038e+20,8.991774329171608e+18,3.4444983092478673e+19,1.3347886063572602e+20,3.171327746557184e+21,2.415162217307928e+21,4.689358207185924e+21,2.127189198032856e+21,1.4537853009494834e+21,2.4834654652086427e+21,0.8062861526791409,0.6737378298843868,0.9216134981829723,1.046280287399954,0.19652498988158618,0.8352153147707844,1.0668347090289227e+21,8.593959022194426e+20,1.5951526475396122e+21,1.5031125068840387e+42,9.425915837878253e+41,3.321722317241267e+42,-7.039038479934583e+45,-3.4937960972121875e+46,-5.164722478801533e+48,0
1.857992318274798e+21,1.4667870272113402e+21,2.7655701260713313e+21,8.073945008362677e+20,5.802446028443958e+20,1.30820865468719e+21,9.833724824564913e+20,7.453593637909823e+20,1.5014447129885784e+21,5.195996834159578e+19,1.613392451668628e+20,4.920691675411653e+20,3.849882839744131e+21,3.5013182044866913e+21,6.17750761614289e+21,2.127189198032856e+21,1.4537853009494834e+21,2.4834654652086427e+21,0.062485517535411136,0.5056585865605612,0.2867330974631798,-0.6712509829599087,0.2346241871621353,-0.9341174147330062,1.857992318274798e+21,1.4667870272113407e+21,2.765570126071331e+21,4.4191568940207995e+42,2.70702476438638e+42,9.902714348379553e+42,-7.039038479934583e+45,-3.4937960972121875e+46,-5.164722478801533e+48,0
1.6192048284327412e+21,1.578942436211947e+21,2.3123189258608522e+21,7.535984942277713e+20,6.144150098526566e+20,6.374460753874932e+20,9.30567097977852e+20,8.348924432438863e+20,7.645283699381638e+20,2.910019435536319e+20,1.638414053810011e+20,1.256551165091844e+21,3.611834530964408e+21,4.043346112653889e+21,4.1103216695590246e+21,2.127189198032856e+21,1.4537853009494834e+21,2.4834654652086427e+21,0.5399955014692078,1.2426460571658127,0.30978153244121726,-0.7013445522592554,1.6514745483176076,-0.5567340157780936,1.6192048284327412e+21,1.578942436211947e+21,2.3123189258608522e+21,3.487779400258823e+42,3.190104608656664e+42,5.931322443334592e+42,-7.039038479934583e+45,-3.4937960972121875e+46,-5.164722478801533e+48,0
3.5663069815185563e+21,2.528641545015339e+21,4.3709281853104655e+21,1.5777774212398223e+21,1.2409421117343292e+21,1.8614661944318055e+21,1.9451477831920265e+21,1.5703855976009735e+21,2.2404314418407992e+21,2.566479597363613e+19,1.4887423750328235e+20,4.845758728273511e+20,8.743964121234686e+21,1.0064268550147402e+22,1.0002737469432336e+22,2.127189198032856e+21,1.4537853009494834e+21,2.4834654652086427e+21,0.6635492296141989,1.3069222074427025,0.30984711194348585,-0.2199291456720438,2.963479311212571,-0.5370551273097126,3.5663069815185573e+21,2.5286415450153387e+21,4.370928185310464e+21,1.6502145384884856e+43,8.860138988330126e+42,2.412454624673027e+43,-7.039038479934583e+45,-3.4937960972121875e+46,-5.164722478801533e+48,0
7.170798726016665e+21,6.25241826544796e+21,3.5073919333115725e+21,2.65058379019188e+21,2.5379688254542373e+21,1.237116567858621e+21,3.160450826915989e+21,3.2694879806031905e+21,1.4663250830442698e+21,2.41880357846039e+21,8.641091835244815e+20,8.396668359228512e+20,1.4643068589553675e+22,1.43042183057955e+22,6.448385463389485e+21,2.127189198032856e+21,1.4537853009494834e+21,2.4834654652086427e+21,0.4196721560391311,0.6388200451638351,0.17535440834950028,-0.6140316803767916,-0.05649675177318603,-0.8696328679616157,7.170798726016665e+21,6.25241826544796e+21,3.507391933311572e+21,6.140880379839619e+43,4.978228582141599e+43,1.445190742302387e+43,-7.039038479934583e+45,-3.4937960972121875e+46,-5.164722478801533e+48,0
2.9764126790354437e+22,4.1069987776553065e+22,3.8517964635221074e+21,1.644784295968613e+22,2.9017454999408824e+22,1.7084875029112407e+21,1.759087356695393e+22,3.67335413814343e+22,2.208271428062405e+21,1.0147321837098602e+22,1.4774467898605235e+22,1.4456968164977242e+21,5.717534063018044e+22,1.2777206654478747e+23,8.773967424097213e+21,2.127189198032856e+21,1.4537853009494834e+21,2.4834654652086427e+21,0.45077132578726054,1.5102667057530565,1.1007374553045985,-1.5280460837714112,1.003675382187053,0.4132137923237269,2.9764126790354437e+22,4.1069987776553065e+22,3.8517964635221074e+21,1.1953420764408531e+45,3.036096958387764e+45,1.9712798696398183e+43,-7.039038479934583e+45,-3.4937960972121875e+46,-5.164722478801533e+48,0
5.569223964982811e+19,4.993506687215249e+19,2.9037967708286003e+20,5.935956894164221e+19,5.063831743033724e+19,5.254406901637371e+20,1.9019126597200265e+20,1.760376659131135e+20,3.364549427639365e+21,1.5553854318351217e+18,4.600839376075213e+17,1.5871842616385925e+18,1.9095000607721647e+21,1.9441062711663704e+21,4.311379592542746e+22,1.331603670625318e+19,1.7034821085147177e+19,1.7418739561538066e+19,7.883129026953484,8.944612373950054,12.649079556524548,66.21967528452338,86.37592165275004,158.00156189193265,5.569223964982807e+19,4.9935066872152465e+19,2.9037967708286022e+20,3.927434320924693e+40,3.3482770723663317e+40,1.1404513207891116e+43,-2.4288368350425675e+42,-1.882966884571618e+42,-5.185158077712072e+44,0
1.404935049752134e+19,9.78316191103931e+18,2.0908037750682804e+19,4.2507855486164485e+18,3.6162244236059346e+18,7.455400904756041e+18,5.268202277789593e+18,4.407164117624033e+18,8.815763957177034e+18,3.156673315473242e+18,2.176792028236805e+18,2.0615394553652838e+18,2.2581428298721e+19,1.9609813363928056e+19,3.348670253166898e+19,1.331603670625318e+19,1.7034821085147177e+19,1.7418739561538066e+19,-0.46501594454163087,-0.00025463687582506333,-0.507018256723861,-0.4635349626925924,-0.6227882656256529,-0.8320358047405181,1.4049350497521347e+19,9.783161911039308e+18,2.090803775068281e+19,2.2513820464191078e+38,1.1513335253728317e+38,5.148637367326391e+38,-2.4288368350425675e+42,-1.882966884571618e+42,-5.185158077712072e+44,0
1.6619102258123776e+19,1.0414979103393874e+19,3.1758008467793412e+19,4.3765595206945234e+18,3.5737864376948116e+18,9.169061754467038e+18,5.29226783715326e+18,4.156816669487673e+18,1.0929767961234338e+19,4.391061272820952e+18,2.2636499259722732e+18,6.981724478287218e+18,3.0438128105550864e+19,1.7907763287221375e+19,5.4323244320776225e+19,1.331603670625318e+19,1.7034821085147177e+19,1.7418739561538066e+19,0.23046836953743713,0.06035015247471562,-0.16665366473889853,-0.27909181367278846,-1.0016390353005822,-0.7703244385837209,1.6619102258123774e+19,1.0414979103393878e+19,3.1758008467793404e+19,3.0420265872614145e+38,1.257509145478617e+38,1.128030929526862e+39,-2.4288368350425675e+42,-1.882966884571618e+42,-5.185158077712072e+44,0
1.5236899714408681e+19,9.88277377419034e+18,2.4322420245858288e+19,4.3460812310871593e+18,3.7189158121758925e+18,8.466017869459624e+18,5.403261640913165e+18,4.4634805427328486e+18,1.054938438995163e+19,3.156673315473242e+18,2.176792028236805e+18,2.0615394553652838e+18,2.4338869408477053e+19,1.9609813363928056e+19,5.204382321910892e+19,1.331603670625318e+19,1.7034821085147177e+19,1.7418739561538066e+19,-0.3464498430801395,0.06249838126289664,0.22397178634545664,-0.43867276702420055,-0.8541822423775245,-0.2296613662749052,1.523689971440868e+19,9.882773774190336e+18,2.432242024585829e+19,2.613583492671109e+38,1.1759187602717905e+38,7.028696376230925e+38,-2.4288368350425675e+42,-1.882966884571618e+42,-5.185158077712072e+44,0
1.4240324616037302e+19,1.494255292049232e+19,2.5208601462922035e+19,4.783551785482969e+18,6.301092185282057e+18,8.867463996726636e+18,5.904928062281632e+18,7.511849852484195e+18,1.0814419885184758e+19,1.5553854318351217e+18,1.54377127894566e+18,4.94895479681689e+18,3.163744556810086e+19,3.1864606602407215e+19,5.010058188235846e+19,1.331603670625318e+19,1.7034821085147177e+19,1.7418739561538066e+19,0.25069007472147037,0.4885079464940041,0.17461264147573616,0.1690949002150055,-0.66067577982305,-0.41608338091784836,1.4240324616037304e+19,1.494255292049232e+19,2.520860146292203e+19,2.3765502059083906e+38,2.7970777598798046e+38,7.524252651695142e+38,-2.4288368350425675e+42,-1.882966884571618e+42,-5.185158077712072e+44,0
3.0156837280127275e+19,2.782152424170457e+19,2.7313325997107732e+19,1.3923558744026894e+19,1.1836542911723352e+19,1.1044746065989267e+19,1.8279338467597326e+19,1.5747381928334932e+19,1.3414882400270041e+19,3.904689524929485e+18,4.600839376075213e+17,1.5871842616385925e+18,1.0510705589822138e+20,7.809954169928152e+19,5.5491797665400726e+19,1.331603670625318e+19,1.7034821085147177e+19,1.7418739561538066e+19,1.338144027647088,1.013125699402416,0.21613802393552697,2.705023768122781,1.125110477922262,-0.813626705840305,3.015683728012727e+19,2.782152424170458e+19,2.7313325997107737e+19,1.2435690495530572e+39,1.0220172487286053e+39,9.259768468373563e+38,-2.4288368350425675e+42,-1.882966884571618e+42,-5.185158077712072e+44,0
3.7078556298534486e+20,2.835659128322299e+20,1.6882789527941718e+19,2.996576746820221e+20,2.24660558992989e+20,8.261520238578406e+18,3.9119076594337684e+20,3.044102489417018e+20,9.533884587152982e+18,6.02809802987816e+19,6.89219180337266e+19,2.939807713021903e+18,1.339151937736557e+21,1.0669677083930805e+21,3.172478766143855e+19,1.331603670625318e+19,1.7034821085147177e+19,1.7418739561538066e+19,1.6576717684015547,1.823709626281018,0.010249159133004261,1.3545381027858392,1.9777646025250908,-1.2029905847098172,3.7078556298534486e+20,2.835659128322299e+20,1.688278952794172e+19,2.9051214907772496e+41,1.7307522658112468e+41,3.7592353756593186e+38,-2.4288368350425675e+42,-1.882966884571618e+42,-5.185158077712072e+44,0
5.859428164577277e+19,7.192293070706453e+19,4.323596671875013e+20,5.287501541160969e+19,7.621428898067048e+19,7.712585024193714e+20,2.311397878422073e+20,2.3248092209463322e+20,5.453741342609933e+21,2.0365376224422328e+18,2.5221540694168986e+17,2.8888284534581176e+18,3.213135795882632e+21,2.789784577252467e+21,7.717258065791492e+22,2.2322859602154324e+19,2.4824294107206386e+19,3.0554829018987905e+19,12.830531703235684,9.106479446029436,13.999781249406965,171.42625755735807,95.54744465271733,193.99763684825766,5.859428164577279e+19,7.1922930707064545e+19,4.323596671875012e+20,5.685889136532475e+40,5.922028709946415e+40,2.993022951390331e+43,-3.0651515745005423e+42,-3.9081542911621547e+42,-1.5626518328505812e+45,0
2.287113322393404e+19,1.9193864142588064e+19,3.2392438185094566e+19,9.494065611726744e+18,5.709408610090681e+18,1.2283958245840013e+19,1.1352237318770815e+19,7.233151493217277e+18,1.5313639837996048e+19,6.026279819404524e+18,2.7146769194192077e+18,8.459233338895756e+18,5.1716490657487544e+19,3.5809843651429966e+19,6.648120906603535e+19,2.2322859602154324e+19,2.4824294107206386e+19,3.0554829018987905e+19,0.4810478089903194,-0.25509236914930367,0.3936093129845348,-0.3058371725961839,0.06333606041507567,-0.4876568371318539,2.2871133223934034e+19,1.9193864142588068e+19,3.239243818509457e+19,6.519620270886321e+38,4.207229012479592e+38,1.2837776166630323e+39,-3.0651515745005423e+42,-3.9081542911621547e+42,-1.5626518328505812e+45,0
3.1955600200521118e+19,1.786852875828207e+19,2.4363308671880253e+19,1.0920927265903436e+19,6.434298876396086e+18,9.951565780405641e+18,1.4078425495758273e+19,7.793944391374903e+18,1.1974301347124634e+19,2.07498407598327e+18,3.4540700379705303e+18,4.20969448189731e+18,7.0099516020211515e+19,3.522955727760822e+19,5.441921458550853e+19,2.2322859602154324e+19,2.4824294107206386e+19,3.0554829018987905e+19,0.44269401435175687,0.06069895271874548,0.29983247925047046,0.0971856099539421,-0.6934177862282347,-0.47101894126417676,3.195560020052112e+19,1.7868528758282074e+19,2.4363308671880258e+19,1.219362448615162e+39,3.800298891613979e+38,7.369547021930662e+38,-3.0651515745005423e+42,-3.9081542911621547e+42,-1.5626518328505812e+45,0
2.2425724323074978e+19,1.7440510624999709e+19,3.3354033082430386e+19,8.440846033269958e+18,6.199610059651891e+18,1.1344755300449235e+19,1.0535802431167519e+19,7.43166265155872e+18,1.456999978846513e+19,2.0365376224422328e+18,2.1820343442746286e+18,2.8888284534581176e+18,5.1716490657487544e+19,3.5809843651429966e+19,6.648120906603535e+19,2.2322859602154324e+19,2.4824294107206386e+19,3.0554829018987905e+19,0.08161118069739019,-0.04224194857426706,0.1268335411927072,-0.30886262107999674,-0.6718570810041826,-0.25493353383619155,2.242572432307498e+19,1.7440510624999703e+19,3.335403308243039e+19,6.139162442831522e+38,3.594010206273002e+38,1.3247764166997346e+39,-3.0651515745005423e+42,-3.9081542911621547e+42,-1.5626518328505812e+45,0
2.866014657704773e+19,1.773289030700847e+19,2.9496522525399863e+19,8.581515756759768e+18,7.922953761389166e+18,1.2422815995765578e+19,1.091065756383458e+19,9.614461458104682e+18,1.4939408625825274e+19,4.1350155837083976e+18,5.720361914391675e+17,8.85718799180587e+18,4.64522914276187e+19,4.0237160323588415e+19,6.377465591387141e+19,2.2322859602154324e+19,2.4824294107206386e+19,3.0554829018987905e+19,-0.6314671147604285,0.1955233457810485,0.6979013546502097,-0.1301919007680663,-0.3617934073824203,-0.4669780291658827,2.866014657704773e+19,1.773289030700847e+19,2.9496522525399867e+19,9.404464502931212e+38,4.068932677697753e+38,1.0932307711808044e+39,-3.0651515745005423e+42,-3.9081542911621547e+42,-1.5626518328505812e+45,0
3.1671984119565345e+19,3.2379039180931887e+19,5.3569328914280145e+19,1.453589182955658e+19,1.610881236701813e+19,1.965904466010919e+19,1.7413777140018102e+19,2.059331020319883e+19,2.504597675892615e+19,2.1465189696931615e+18,2.5221540694168986e+17,6.302032818283016e+18,7.673322233404144e+19,1.0145844878926653e+20,1.313509144696909e+20,2.2322859602154324e+19,2.4824294107206386e+19,3.0554829018987905e+19,0.5436084305258406,0.9338770399756569,0.5060604457303305,-0.6462051729584601,0.6861667968097516,0.3393105700828687,3.1671984119565345e+19,3.2379039180931895e+19,5.3569328914280145e+19,1.3063542123522164e+39,1.4724866034054956e+39,3.496973952134999e+39,-3.0651515745005423e+42,-3.9081542911621547e+42,-1.5626518328505812e+45,0
1.0513732966881737e+20,2.021350580062284e+20,4.364950437213549e+19,7.933652192714757e+19,1.5343673305800756e+20,1.848920628838151e+19,1.0791907099635609e+20,2.562462134051486e+20,2.1704883627696255e+19,8.945391991977222e+18,2.5040725756978463e+19,1.0895974666029388e+19,4.753008554970088e+20,1.2204898537944777e+21,8.806760191783659e+19,2.2322859602154324e+19,2.4824294107206386e+19,3.0554829018987905e+19,1.852034125355352,2.827578857051995,0.20362437905679093,2.8085103801478013,7.162415207466836,-0.9874339723756105,1.0513732966881737e+20,2.0213505800622834e+20,4.3649504372135485e+19,2.270038397460613e+40,1.0652070355965827e+41,2.376381205224912e+39,-3.0651515745005423e+42,-3.9081542911621547e+42,-1.5626518328505812e+45,0
3.767615570814824e+19,4.1206136291512295e+19,3.3727283766456595e+20,3.531369571889762e+19,4.373055332623868e+19,6.170406935892473e+20,1.9947381920289623e+20,1.4615017443455038e+20,4.1046845654224596e+21,1.3383584984383918e+18,1.1908936321032172e+18,1.3663430683227628e+18,2.661647690259635e+21,1.6832446031316774e+21,5.463685387351832e+22,1.2983015761336457e+19,1.3720554226142028e+19,1.8490548025194263e+19,12.936731710954318,9.282205127332558,13.152949174143542,167.13353963062363,94.28531167137403,171.00197413904795,3.767615570814824e+19,4.120613629151228e+19,3.3727283766456635e+20,4.1209297256334347e+40,2.305781915532418e+40,1.6962188348643669e+43,-1.9027857113047717e+42,-1.3483507922570207e+42,-8.123722839143608e+44,0
1.0806748612991451e+19,7.206520546184602e+18,1.5129640747298159e+19,4.628311532961868e+18,3.3642465985355505e+18,5.464995898610252e+18,6.133107592869954e+18,4.1410320939315154e+18,6.54477854664687e+18,5.7631553470619546e+17,1.4743603549863322e+18,3.1542326404698317e+18,2.8701099441766326e+19,1.7348134927434105e+19,3.0400966958768742e+19,1.2983015761336457e+19,1.3720554226142028e+19,1.8490548025194263e+19,0.9605916965844638,0.7496370476657721,0.0658636677920536,1.1156653248622792,-0.2737526593671622,-0.5007564927942445,1.0806748612991451e+19,7.206520546184602e+18,1.5129640747298157e+19,1.544008243301117e+38,6.908208518555164e+37,2.717401553669538e+38,-1.9027857113047717e+42,-1.3483507922570207e+42,-8.123722839143608e+44,0
1.0617530596750731e+19,8.07361811849693e+18,1.4986680228557277e+19,3.757949855201822e+18,3.111890540243845e+18,5.505603741745015e+18,4.927204518926983e+18,3.8058385763191885e+18,6.644691727734214e+18,1.8860279010450176e+18,6.74721674516568e+17,3.163570292977815e+18,2.4367210961808278e+19,1.5838513310081434e+19,3.4043332364655858e+19,1.2983015761336457e+19,1.3720554226142028e+19,1.8490548025194263e+19,0.7998835081996482,0.21877397992824787,0.31776927831469276,0.5934629331130759,-0.6980252070563258,-0.4922080172245158,1.0617530596750733e+19,8.073618118496929e+18,1.4986680228557273e+19,1.3700930034427243e+38,7.96677167923212e+37,2.68752512429649e+38,-1.9027857113047717e+42,-1.3483507922570207e+42,-8.123722839143608e+44,0
1.1190288645690327e+19,7.817163276710144e+18,1.504596549882568e+19,4.891666259692713e+18,3.251276204154549e+18,6.111508055908579e+18,6.205077149381856e+18,3.850298640042824e+18,7.325731395333748e+18,5.7631553470619546e+17,6.74721674516568e+17,3.1542326404698317e+18,2.8701099441766326e+19,1.5482839907440628e+19,3.4043332364655858e+19,1.2983015761336457e+19,1.3720554226142028e+19,1.8490548025194263e+19,0.6832551064160621,0.288477286595302,0.23833860623554756,0.1453150853466494,-0.8781365783545052,-0.6086181671216697,1.1190288645690327e+19,7.817163276710144e+18,1.504596549882568e+19,1.6372554240364667e+38,7.59328413122613e+37,2.8004741826843128e+38,-1.9027857113047717e+42,-1.3483507922570207e+42,-8.123722839143608e+44,0
1.3816379270184423e+19,1.0866630058056165e+19,1.99380952449278e+19,5.225106684851204e+18,4.502829312467845e+18,8.760094364699681e+18,6.238709822370341e+18,5.305592827086517e+18,1.0487092796052197e+19,1.3383584984383918e+18,1.1908936321032172e+18,1.3663430683227628e+18,2.821747474240501e+19,2.233588396674022e+19,4.588856762596583e+19,1.2983015761336457e+19,1.3720554226142028e+19,1.8490548025194263e+19,0.2691209278109951,0.12189497505623208,0.4617853196100003,-0.5675734619755457,-0.7604270627613197,-0.6162517859321,1.3816379270184425e+19,1.0866630058056167e+19,1.9938095244927803e+19,2.298138363853221e+38,1.462329640654817e+38,5.075067573088227e+38,-1.9027857113047717e+42,-1.3483507922570207e+42,-8.123722839143608e+44,0
2.160275829893826e+19,2.279859198387489e+19,3.0712703876062945e+19,7.092866700991738e+18,1.0500472693294954e+19,1.104064276915256e+19,8.983994924678676e+18,1.6058489774367535e+19,1.36950796314096e+19,2.492086159791258e+18,4.1846574830480666e+18,2.0282784927109683e+18,5.500564871516974e+19,1.1335731788354296e+20,6.401703801567671e+19,1.2983015761336457e+19,1.3720554226142028e+19,1.8490548025194263e+19,0.4698159392340111,2.4822867574950136,0.11719216339945972,0.8504230559934598,9.309897914332403,-0.3268099782033027,2.1602758298938257e+19,2.2798591983874896e+19,3.071270387606295e+19,5.4739133092899774e+38,7.776508902806711e+38,1.1308253854893821e+39,-1.9027857113047717e+42,-1.3483507922570207e+42,-8.123722839143608e+44,0
7.382395334360038e+19,2.2295750639541112e+20,2.15133239260308e+19,4.320943707108492e+19,1.5403652231180003e+20,9.006302330207069e+18,5.63994611483196e+19,2.3053268997965526e+20,1.0452487688918512e+19,5.956087146503186e+18,4.9371776812399034e+19,5.150845247528019e+18,2.105392296754439e+20,8.915422402637255e+20,3.956296141923242e+19,1.2983015761336457e+19,1.3720554226142028e+19,1.8490548025194263e+19,1.1360692237547976,2.15462107979135,-0.045129449991084654,0.6126299243538949,3.5283071813165314,-1.0839430452844814,7.382395334360038e+19,2.2295750639541112e+20,2.15133239260308e+19,8.630875305098897e+39,1.0285537080731563e+41,5.720776052333224e+38,-1.9027857113047717e+42,-1.3483507922570207e+42,-8.123722839143608e+44,0
2.5386041480616837e+20,1.9853009523258327e+20,1.1607061145691482e+21,1.957102211706506e+20,2.109777918147719e+20,1.977751341518938e+21,6.84146119709572e+20,7.627046717766275e+20,1.6694586440583534e+22,2.3527521966485393e+19,2.8272277683283067e+18,1.0727794537224733e+19,1.0077511545377868e+22,1.0976602169246675e+22,2.8200139661025844e+23,1.161984217877186e+20,8.107850236785358e+19,1.3673769218440756e+20,11.549935023873081,11.274225471275928,16.762128141277415,152.6528358215706,144.79536015828543,278.98054680574694,2.538604148061685e+20,1.9853009523258324e+20,1.1607061145691491e+21,5.32501023319224e+41,6.211326150629516e+41,2.8005645510651363e+44,-4.332000809744194e+43,-5.007435485952455e+43,-1.8177705413387105e+46,0
7.125129640940275e+19,4.544000858998492e+19,9.459367561850887e+19,2.56857489538018e+19,1.7328716298048354e+19,3.892575806686257e+19,3.739673379359862e+19,2.1470948816147108e+19,4.708955410938648e+19,1.9072515992286675e+19,1.061826289976998e+19,1.785254096783858e+19,1.990782855169577e+20,9.882374765422276e+19,2.1273580599574633e+20,1.161984217877186e+20,8.107850236785358e+19,1.3673769218440756e+20,1.7002026063059907,0.39824986766655274,0.05082193617585093,2.9414641575169176,-0.2811205083529731,-0.5075524564410601,7.125129640940275e+19,4.544000858998492e+19,9.459367561850887e+19,6.475262938449849e+39,2.525796023723513e+39,1.1165389573240516e+40,-4.332000809744194e+43,-5.007435485952455e+43,-1.8177705413387105e+46,0
7.930779621615406e+19,4.5496294524794675e+19,8.842673535907158e+19,3.0189563410986537e+19,1.9354642167122014e+19,3.3992309176872428e+19,3.6753039210324554e+19,2.420007446987236e+19,3.970209493302773e+19,3.334851723724425e+19,1.4309544448239639e+19,2.3713453452142494e+19,1.439444030365628e+20,9.882374765422276e+19,1.55003138369477e+20,1.161984217877186e+20,8.107850236785358e+19,1.3673769218440756e+20,0.7703790772188644,0.6349814414600292,0.0035216368699966956,-0.7993730791822382,-0.4745654964938768,-1.263290974657775,7.930779621615405e+19,4.5496294524794675e+19,8.84267353590716e+19,7.640512431858673e+39,2.6555564198342297e+39,9.395543868334429e+39,-4.332000809744194e+43,-5.007435485952455e+43,-1.8177705413387105e+46,0
1.19885031398586e+20,5.209189025821883e+19,1.102723077993945e+20,4.385102203497298e+19,2.1692566196839264e+19,5.003697692682697e+19,5.548577321336377e+19,2.8337054756224057e+19,6.136698306120261e+19,1.9072515992286675e+19,3.802696263953666e+18,1.0727794537224733e+19,2.828722567700994e+20,1.501602503518762e+20,2.793482812208699e+20,1.161984217877186e+20,8.107850236785358e+19,1.3673769218440756e+20,0.5506099216338647,0.7834615925006798,0.47615316238694927,-0.1411794684561043,0.8769216012811718,-0.4140725922547097,1.1988503139858606e+20,5.209189025821884e+19,1.1027230779939457e+20,1.7451091782524805e+40,3.516553702931555e+39,1.592588847743834e+40,-4.332000809744194e+43,-5.007435485952455e+43,-1.8177705413387105e+46,0
1.4168546616843449e+20,6.0521534175769125e+19,1.4455186710199729e+20,5.499804889644768e+19,3.4341594186909786e+19,6.536605873066392e+19,6.594088318693516e+19,3.967357099691427e+19,8.011926907675066e+19,6.270251384028527e+19,5.82304923351817e+18,1.9552294579289457e+19,3.165558988943322e+20,1.464040911274913e+20,3.179136369246941e+20,1.161984217877186e+20,8.107850236785358e+19,1.3673769218440756e+20,1.1201657351331447,0.29823438573810473,0.37935641498789346,0.6132887478106626,-0.9922825251503706,-0.6737760420779941,1.4168546616843449e+20,6.052153417576915e+19,1.4455186710199729e+20,2.442297139883962e+40,5.23684833463599e+39,2.731433956006626e+40,-4.332000809744194e+43,-5.007435485952455e+43,-1.8177705413387105e+46,0
1.4781779691334782e+20,1.0964330165951839e+20,1.6037201572662277e+20,6.1595704111047115e+19,4.094731600860853e+19,6.58986251700182e+19,7.428168199176207e+19,4.969942256909216e+19,7.934444842622691e+19,2.3527521966485393e+19,2.8272277683283067e+18,1.8091919707274609e+19,3.3762375161003154e+20,2.523829278471713e+20,3.857459661127883e+20,1.161984217877186e+20,8.107850236785358e+19,1.3673769218440756e+20,0.43833081440361726,0.3668210564784188,0.2761893786327609,-0.4599512935715153,-0.08373700222747171,-0.35382261328742315,1.4781779691334782e+20,1.0964330165951835e+20,1.603720157266228e+20,2.7367869363841007e+40,1.4491686202501333e+40,3.201472492428233e+40,-4.332000809744194e+43,-5.007435485952455e+43,-1.8177705413387105e+46,0
4.7828677433086194e+20,4.321960397641195e+20,2.8008868175258593e+20,3.076753501910941e+20,3.984793622104003e+20,9.066247419324421e+19,6.493734657670527e+20,7.749788521676002e+20,1.156095220094939e+20,5.885348129806486e+19,1.1367291864398717e+19,1.6408478149546344e+19,4.3218309477457917e+21,4.64380257990081e+21,5.204831812820634e+20,1.161984217877186e+20,8.107850236785358e+19,1.3673769218440756e+20,4.37186931405583,4.33427114688824,0.12744982994357842,20.479641049605107,19.704656075356173,-0.19077169025559293,4.7828677433086194e+20,4.321960397641196e+20,2.80088681752586e+20,6.504441365421344e+41,7.873856380947995e+41,9.181523122516506e+40,-4.332000809744194e+43,-5.007435485952455e+43,-1.8177705413387105e+46,0
3.037036415726499e+20,2.8071730304974864e+20,1.583174604117655e+21,2.2562314167357925e+20,2.850351979652091e+20,2.5845041924909915e+21,5.060998377434626e+20,1.514415848413579e+21,2.3189930397394293e+22,2.1037931640491889e+18,8.984247872782963e+18,9.023951449902875e+18,7.673689499992332e+21,2.5977107456794963e+22,4.1639609749892176e+23,2.547699406893484e+20,1.3763602560009824e+20,2.3952487606885424e+20,10.292253811267807,15.638908441853049,17.829897469287122,139.86966492061234,257.36430300508323,315.938034465347,3.0370364157265006e+20,2.807173030497482e+20,1.5831746041176546e+21,3.4837294766844787e+41,2.3722575661577447e+42,5.4027931366311485e+44,-3.3714840900197424e+43,-1.7630860993454172e+44,-3.802804651060804e+46,0
8.88469340876558e+19,7.987094788728755e+19,1.6752481076423708e+20,3.92272753827907e+19,2.569517984216188e+19,6.54596461562138e+19,4.565860863769278e+19,3.095324643456266e+19,7.939638679772067e+19,1.9423728428846055e+19,2.9006532236882465e+19,4.78437865720742e+19,1.939648521009585e+20,1.286072958511225e+20,3.201955791982186e+20,2.547699406893484e+20,1.3763602560009824e+20,2.3952487606885424e+20,0.05685279378493585,-0.07111139058699055,0.22759540383762325,-0.9518406157339276,-1.1162816265153417,-0.9554000882127487,8.884693408765578e+19,7.987094788728753e+19,1.6752481076423708e+20,9.978486239506246e+39,7.337471781252566e+39,3.436834845812672e+40,-3.3714840900197424e+43,-1.7630860993454172e+44,-3.802804651060804e+46,0
7.831259815913428e+19,5.247950534358359e+19,1.1035897451408071e+20,2.8753119023732486e+19,1.7083160758776588e+19,6.066349169417585e+19,3.2697616166597706e+19,2.251371987248715e+19,7.421071041134302e+19,3.3295391100099613e+19,1.4875148955357696e+19,3.4427562549783986e+19,1.372153198367098e+20,1.0866880263184846e+20,2.8055153188812243e+20,2.547699406893484e+20,1.3763602560009824e+20,2.3952487606885424e+20,0.20927851892405858,0.756329437802099,1.185580324940864,-1.1141328149460916,0.12368119867043692,0.13518759074119924,7.831259815913426e+19,5.247950534358359e+19,1.1035897451408071e+20,7.201997133412192e+39,3.260966063604041e+39,1.7686332795555724e+40,-3.3714840900197424e+43,-1.7630860993454172e+44,-3.802804651060804e+46,0
1.597264298403333e+20,1.0225748507619154e+20,1.896038404532221e+20,7.09213332534734e+19,4.974185634657583e+19,9.117341257506916e+19,9.154102566122724e+19,6.200317779324291e+19,1.2195461116006674e+20,2.1037931640491889e+18,8.984247872782963e+18,9.023951449902875e+18,4.797892599588241e+20,3.2485100096988774e+20,7.675360709944193e+20,2.547699406893484e+20,1.3763602560009824e+20,2.3952487606885424e+20,1.0052099030755466,0.9440487212809111,1.4063748259280318,1.1611774296376423,1.0235360525471515,3.336610111085851,1.5972642984033337e+20,1.0225748507619161e+20,1.8960384045322204e+20,3.3892291768648394e+40,1.4300987310568039e+40,5.082254349781396e+40,-3.3714840900197424e+43,-1.7630860993454172e+44,-3.802804651060804e+46,0
4.941406962305604e+20,2.553039249633371e+20,6.195557366015432e+20,1.4202967375618105e+20,9.45664338513482e+19,1.8531043893002512e+20,1.7911329441649082e+20,1.1993523756020043e+20,2.3433894723790068e+20,1.3101721375576575e+20,5.2649758248747745e+19,2.079666260232844e+20,9.868323734282827e+20,6.654852948783825e+20,1.2660997731928307e+21,2.547699406893484e+20,1.3763602560009824e+20,2.3952487606885424e+20,0.2700783410536363,0.6996669334386151,0.7074348274845937,-0.07210605335102116,0.8408268570404642,0.48551338357930174,4.941406962305605e+20,2.553039249633371e+20,6.19555736601543e+20,2.762565999079517e+41,7.956455531030699e+40,4.3876405294844795e+41,-3.3714840900197424e+43,-1.7630860993454172e+44,-3.802804651060804e+46,0
5.457733577005148e+20,5.3876430420323834e+20,2.8109792822581477e+20,1.9475693011735183e+20,2.2773458082411407e+20,1.204218809618805e+20,2.6167871726590876e+20,3.034785114822626e+20,1.601614085462113e+20,1.8925181502021698e+20,5.970303342993568e+19,4.615320681117385e+19,1.1588384211263284e+21,1.364205529519991e+21,7.892409027247522e+20,2.547699406893484e+20,1.3763602560009824e+20,2.3952487606885424e+20,0.9604227371069043,0.9648753549690238,1.2417135836777213,0.34014340583180847,0.7324781617907021,2.133923039149737,5.457733577005148e+20,5.3876430420323834e+20,2.8109792822581477e+20,3.663443090456254e+41,3.823661824150892e+41,1.0466772204035174e+41,-3.3714840900197424e+43,-1.7630860993454172e+44,-3.802804651060804e+46,0
1.6594096364490423e+21,2.1285241104471194e+21,4.298849102562603e+20,4.383936160769018e+20,1.9664070762347731e+21,6.442997246683633e+19,6.210244438946746e+20,2.6579408406989206e+21,8.834421512250517e+19,8.52346521589494e+20,4.263285814768642e+20,3.6671510142445106e+20,2.8997674507595615e+21,8.027745339151438e+21,6.212267031961563e+20,2.547699406893484e+20,1.3763602560009824e+20,2.3952487606885424e+20,0.9410183126858285,1.7294836784559682,1.5561528869413856,0.1369211665478387,1.0948489644401525,0.7563091050809443,1.6594096364490423e+21,2.1285241104471194e+21,4.298849102562603e+20,3.139311701454633e+42,1.1595264401409987e+43,1.9260573641164445e+41,-3.3714840900197424e+43,-1.7630860993454172e+44,-3.802804651060804e+46,0
5.9888508726080094e+19,6.211889365580968e+19,3.078058010883368e+20,5.1306575639841554e+19,6.403403377448021e+19,5.163201832903615e+20,1.5379718743700583e+20,1.9482102780905665e+20,3.4153570814732193e+21,2.8977812045067387e+18,2.90356090707793e+18,4.446349313481818e+18,1.7671969397765093e+21,2.0967445777859734e+21,4.522766174734977e+22,2.524387183957395e+19,1.8287822356072335e+19,2.795455521390914e+19,8.742234416542233,8.257137686342475,13.07501731962835,87.8415878682963,75.43975114137643,168.9728133178994,5.988850872608009e+19,6.211889365580978e+19,3.078058010883369e+20,2.7240208340967275e+40,4.181398982559903e+40,1.17594084051529e+43,-1.6799139032100556e+42,-2.675538243749596e+42,-5.680086738768714e+44,0
1.6528565346421137e+19,1.400576770080385e+19,2.4731232726735307e+19,4.766514015681454e+18,4.501689444268761e+18,9.984906670297416e+18,5.494613183105185e+18,5.770070470847149e+18,1.1851806894124909e+19,7.90341624144871e+18,4.839425578195649e+18,4.0729007225441976e+18,2.7495953293152748e+19,2.6328280858296623e+19,4.666088956901326e+19,2.524387183957395e+19,1.8287822356072335e+19,2.795455521390914e+19,0.18684229369918132,0.5945608028747361,0.2790464243785683,-1.0411493767594,-0.1729692123635842,-0.9603782016086773,1.6528565346421137e+19,1.400576770080385e+19,2.4731232726735307e+19,3.0338424644286693e+38,2.2945524212742258e+38,7.520991988395703e+38,-1.6799139032100556e+42,-2.675538243749596e+42,-5.680086738768714e+44,0
1.9346592911667466e+19,1.3781177462751474e+19,2.59304086664552e+19,8.963876166268259e+18,4.966519043398139e+18,1.0497921348865581e+19,1.0912107472599693e+19,6.230527369980093e+18,1.2843752691474289e+19,6.60080159825068e+17,2.0037660114797507e+18,1.4765055890270126e+18,4.5880135548038775e+19,3.0312758389534896e+19,5.891075171666195e+19,2.524387183957395e+19,1.8287822356072335e+19,2.795455521390914e+19,0.3487609909282811,0.5726602151557693,0.3147446464335992,-0.5689543296561257,0.06358835435873633,-0.3364476141415196,1.934659291166747e+19,1.3781177462751465e+19,2.593040866645519e+19,4.933647467833479e+38,2.2874032356792e+38,8.373480768091276e+38,-1.6799139032100556e+42,-2.675538243749596e+42,-5.680086738768714e+44,0
1.7070513168676268e+19,1.407973117688573e+19,2.857739594864949e+19,6.656229729046955e+18,4.88332804342736e+18,9.299476706110274e+18,8.933428492710243e+18,5.898474597296396e+18,1.0931290758286146e+19,6.642514550706708e+17,2.0037660114797507e+18,4.0729007225441976e+18,4.4894316099288154e+19,2.6328280858296623e+19,5.0576955243369366e+19,2.524387183957395e+19,1.8287822356072335e+19,2.795455521390914e+19,1.042473475732541,-0.05870860150094609,0.09885428004190247,1.2997206533781638,-0.6559924091441163,-0.7959855608732402,1.707051316867627e+19,1.407973117688573e+19,2.857739594864949e+19,3.712085644763171e+38,2.330308325883189e+38,9.361606768480804e+38,-1.6799139032100556e+42,-2.675538243749596e+42,-5.680086738768714e+44,0
1.583429530162974e+19,1.6676015196438297e+19,2.486124783575962e+19,5.54845617291422e+18,7.513599761743309e+18,1.0326707436637184e+19,6.382471661720468e+18,9.652460150405536e+18,1.2609560122610747e+19,6.517199403340333e+18,2.90356090707793e+18,4.446349313481818e+18,2.786513795598781e+19,3.889602029052069e+19,4.7864499642825e+19,2.524387183957395e+19,1.8287822356072335e+19,2.795455521390914e+19,0.05416431940322986,0.6324485110885939,0.19211347408938412,-1.2140819630666992,-0.3758768221852713,-0.8378579764374754,1.5834295301629741e+19,1.6676015196438292e+19,2.486124783575962e+19,2.9146085221187846e+38,3.712594697870078e+38,7.770826504367974e+38,-1.6799139032100556e+42,-2.675538243749596e+42,-5.680086738768714e+44,0
3.60600689900833e+19,2.531380993532493e+19,3.87741513970738e+19,1.4620299955490036e+19,1.0066204479423572e+19,1.5808972536830448e+19,1.8487795285516075e+19,1.2789311540619592e+19,1.9366658554096566e+19,3.330895054485368e+18,4.564176209320716e+18,7.60671252949394e+18,8.227331781616207e+19,5.935945615929338e+19,9.90351189543105e+19,2.524387183957395e+19,1.8287822356072335e+19,2.795455521390914e+19,0.5638074815721053,0.7281674974342348,0.5722724381377194,-0.30112830440480964,0.005691047527125903,-0.09743995047359233,3.606006899008331e+19,2.5313809935324918e+19,3.8774151397073805e+19,1.642127150088718e+39,8.043554631247801e+38,1.878502280114162e+39,-1.6799139032100556e+42,-2.675538243749596e+42,-5.680086738768714e+44,0
1.0642844306098766e+20,1.2923574682041754e+20,8.30795845873492e+19,8.54339743694129e+19,1.128866295783275e+20,3.3995732885237686e+19,1.4501871694769558e+20,2.130392556110227e+20,4.142841548067056e+19,7.62888334359815e+18,1.251984760684823e+19,7.082197123542469e+18,7.632848277910567e+20,1.3038322022691488e+21,1.7204988947083346e+20,2.524387183957395e+19,1.8287822356072335e+19,2.795455521390914e+19,3.111118721514228,4.105679115169085,0.11644810843116932,9.793551422471117,18.45497312382822,-0.5961216332486403,1.0642844306098766e+20,1.2923574682041754e+20,8.307958458734918e+19,3.2357441757541744e+40,6.208760268752975e+40,8.618530984445572e+39,-1.6799139032100556e+42,-2.675538243749596e+42,-5.680086738768714e+44,0
3.198373925264005e+21,1.3850869249575016e+21,9.939008806149892e+22,1.6795676926568523e+21,1.6326131596605781e+21,8.698757598588962e+20,2.7969873322403194e+21,3.725934635261856e+21,2.7290867773819574e+21,1.5956485483092247e+19,1.1057914422695035e+18,9.622906238107766e+22,3.2300977204934117e+22,3.7147967596710337e+22,1.362957443295631e+23,2.566792643280467e+21,5.537131996735485e+20,1.0336610432044677e+21,5.709961815578155,6.186943262446083,11.965484453371216,54.650601706982634,46.79609874204323,159.39601387994426,3.1983739252640045e+21,1.3850869249575014e+21,9.939008806149894e+22,1.805273390252149e+43,1.5801054695932128e+43,9.885837519510998e+45,-1.6598880965370785e+45,-1.3108940464119116e+45,-1.505470955139808e+48,0
8.584862737401435e+20,3.7103747720998106e+20,9.907877631924757e+22,3.5967779933638296e+20,2.374783511154753e+20,6.507407830333224e+20,4.522256699962795e+20,3.028685658936329e+20,7.693876593683873e+20,7.692321150131346e+19,1.2528830240334217e+19,9.750234663362122e+22,1.9611140981942235e+21,1.3683516042581343e+21,1.003622079861053e+23,2.566792643280467e+21,5.537131996735485e+20,1.0336610432044677e+21,0.4377416955679138,1.244778452039257,-0.1734660254614712,-0.3949893958507502,1.5940457497588527,-0.8756745068031218,8.584862737401435e+20,3.7103747720998106e+20,9.907877631924755e+22,9.415067388038204e+41,2.2939817770081315e+41,9.817195874289879e+45,-1.6598880965370785e+45,-1.3108940464119116e+45,-1.505470955139808e+48,0
8.62003268963687e+20,5.371515833995357e+20,9.911326147795518e+22,4.2937502572806767e+20,2.5067524558247015e+20,5.5756271724841245e+20,5.3119620631568817e+20,3.06036741242402e+20,6.734405632893827e+20,6.730206225864589e+18,2.2063292942946206e+19,9.750234663362122e+22,2.359356648967746e+21,1.3683516042581343e+21,1.0090504939500705e+23,2.566792643280467e+21,5.537131996735485e+20,1.0336610432044677e+21,0.6719294353055751,0.19133974899401365,0.2230386580944623,-0.08202180497064893,-0.5943832720517013,-0.004002060185583467,8.620032689636872e+20,5.3715158339953564e+20,9.911326147795516e+22,1.0252190453082618e+42,3.821903105388972e+41,9.823892122989795e+45,-1.6598880965370785e+45,-1.3108940464119116e+45,-1.505470955139808e+48,0
7.135796947556954e+20,2.7994930506185635e+20,9.924384183153478e+22,3.141462382076654e+20,1.8168372092744473e+20,4.7253587163229454e+20,3.9494476469044367e+20,2.124475924605844e+20,5.753466487651367e+20,1.5956485483092247e+19,1.2528830240334217e+19,9.798113511036194e+22,1.80257613546341e+21,7.41238748833199e+20,1.003878273453868e+23,2.566792643280467e+21,5.537131996735485e+20,1.0336610432044677e+21,0.5977155563491015,0.5736599653211011,-0.18313842335981825,0.15519624131382947,-0.7043202773439834,-0.4254282689405051,7.135796947556952e+20,2.7994930506185638e+20,9.924384183153478e+22,6.6517734792402105e+41,1.2350559294691489e+41,9.84967116524894e+45,-1.6598880965370785e+45,-1.3108940464119116e+45,-1.505470955139808e+48,0
2.339168258735811e+21,4.038116918392079e+20,9.922082714118903e+22,5.783935824812327e+20,2.5152780231226855e+20,5.8777210277489515e+20,7.334020527810044e+20,2.896250152667796e+20,7.729561877194952e+20,2.088587546800887e+20,1.1057914422695035e+18,9.624457406267823e+22,4.1068734390307437e+21,1.1241851091311581e+21,1.008323735532129e+23,2.566792643280467e+21,5.537131996735485e+20,1.0336610432044677e+21,0.07476019467469312,0.4855728836851143,-0.4165659229525376,0.09099299356998758,-0.6749736350441871,1.3105173752178016,2.3391682587358105e+21,4.038116918392079e+20,9.9220827141189e+22,6.009586713700514e+42,2.4694653193432574e+41,9.845369999849842e+45,-1.6598880965370785e+45,-1.3108940464119116e+45,-1.505470955139808e+48,0
4.432614978511998e+21,9.618520092719343e+20,9.926639427031782e+22,5.4215554597249253e+20,6.024025986530641e+20,9.54947278696034e+20,6.459983522481741e+20,7.621007768861303e+20,1.1600955875643619e+21,3.2652367945701377e+21,2.1384904706183037e+19,9.622906238107766e+22,6.108990384158341e+21,3.237530779543329e+21,1.0123644563421461e+23,2.566792643280467e+21,5.537131996735485e+20,1.0336610432044677e+21,0.18399693467630723,1.0298548725948151,-0.34503484265302997,-0.39531208080696656,0.4691819147428271,-0.3787230331175575,4.432614978511998e+21,9.618520092719345e+20,9.926639427031785e+22,2.0065389418836279e+43,1.505956881870901e+42,9.85516285320248e+45,-1.6598880965370785e+45,-1.3108940464119116e+45,-1.505470955139808e+48,0
6.939611209029356e+21,6.533206825253597e+21,9.89960394937899e+22,9.98307015881242e+20,4.5654545302146845e+21,9.889242356089206e+20,1.172175407570447e+21,5.628763551863388e+21,1.1975157622680802e+21,4.791041063121584e+21,4.558207169249761e+20,9.637242160373455e+22,8.991971690411037e+21,2.2084216425722363e+22,1.012006856203861e+23,2.566792643280467e+21,5.537131996735485e+20,1.0336610432044677e+21,0.0909815023601628,1.2514770111084301,-0.5211573575837658,-0.9544703280288211,0.854538634567914,-0.5351717662161146,6.939611209029356e+21,6.533206825253597e+21,9.899603949378986e+22,4.953219891859884e+43,7.436577054432591e+43,9.801649879456884e+45,-1.6598880965370785e+45,-1.3108940464119116e+45,-1.505470955139808e+48,0
5.729849540483862e+21,2.494085785892144e+21,8.492742570835791e+22,1.8871153754656056e+21,1.6814796713232659e+21,8.041814210354044e+20,3.6060987570225073e+21,2.899305398677733e+21,2.53133306007777e+21,1.677288944071199e+21,1.4846592427660124e+19,8.162930899975732e+22,4.079658745942678e+22,2.6974305638740025e+22,1.153934420870324e+23,1.3667358957776127e+21,1.540663338798692e+21,7.07530709273313e+20,6.002460643355387,4.407357291393899,10.224530690882817,51.133834175006584,29.54212907933895,118.48160792949363,5.729849540483862e+21,2.4940857858921443e+21,8.492742570835791e+22,4.58351240019824e+43,1.4626435702191083e+43,7.219075284509696e+45,-4.620991102239438e+45,-1.2644564412857736e+45,-1.0964659461742137e+48,0
4.4035860293532034e+21,2.605085480244483e+21,8.48574649739679e+22,2.758642048418601e+20,1.348140368717909e+20,2.1443245470507627e+20,3.327822092920119e+20,1.7405056691390362e+20,2.6392088123777355e+20,3.771625857006528e+21,2.268404872323366e+21,8.444396719379909e+22,4.945851899967123e+21,2.9220538279855553e+21,8.529748239119158e+22,1.3667358957776127e+21,1.540663338798692e+21,7.07530709273313e+20,-0.27728127902715255,-0.1196205200243258,0.014063905212800374,-0.5879433557564147,-0.11998569451749574,-0.9363430593374704,4.4035860293532034e+21,2.6050854802444827e+21,8.485746497396794e+22,1.950231391673598e+43,6.816763959223678e+42,7.200859016039748e+45,-4.620991102239438e+45,-1.2644564412857736e+45,-1.0964659461742137e+48,0
3.92738970955309e+21,1.2273162709921437e+21,8.47968536192564e+22,4.438199864005813e+20,5.4168768711977533e+20,3.427218778332351e+20,5.474962846964036e+20,6.60156445492582e+20,4.377220295443612e+20,2.9527232856903605e+21,4.081556221958698e+19,8.365403785231005e+22,5.181051021916404e+21,2.743813204585585e+21,8.562461023131907e+22,1.3667358957776127e+21,1.540663338798692e+21,7.07530709273313e+20,0.3680478576757794,0.22340748869323152,-0.07810212650775737,-0.6303941619883688,-0.6186432241445781,-0.29260516949752535,3.9273897095530896e+21,1.227316270992143e+21,8.47968536192564e+22,1.5724142112459872e+43,1.9421117615674602e+42,7.190697984300748e+45,-4.620991102239438e+45,-1.2644564412857736e+45,-1.0964659461742137e+48,0
4.47722996324133e+21,8.729906057571516e+20,8.470884292396105e+22,3.598811624227254e+20,3.5175630401257846e+20,4.037441957722973e+20,4.148382936857523e+20,4.183996962646724e+20,4.6680252833593734e+20,3.5124169651300834e+21,1.6131505566812642e+20,8.365403785231005e+22,5.181051021916404e+21,1.814563936234763e+21,8.558135273758472e+22,1.3667358957776127e+21,1.540663338798692e+21,7.07530709273313e+20,-0.22864863846240435,0.3384049739269098,-0.3181370257839958,-0.733021163625879,-0.6200850976416126,-0.7876676557142335,4.4772299632413303e+21,8.729906057571516e+20,8.470884292396105e+22,2.0217678953654076e+43,9.37170903574609e+41,7.175805974116768e+45,-4.620991102239438e+45,-1.2644564412857736e+45,-1.0964659461742137e+48,0
4.208817538884583e+21,1.679967361225599e+21,8.479428185038962e+22,5.237881758488667e+20,5.5634341290059556e+20,2.7557526258788513e+20,6.516067152413112e+20,6.730807225173229e+20,3.616327264860317e+20,1.677288944071199e+21,1.7674666882548027e+20,8.369085135870134e+22,5.576700887986533e+21,2.9220538279855553e+21,8.606536888541923e+22,1.3667358957776127e+21,1.540663338798692e+21,7.07530709273313e+20,-0.6121625235076058,-0.4894120873615093,0.10319913623949986,0.9124463319439449,-0.4996846050933996,0.8800898704086206,4.2088175388845807e+21,1.6799673612255995e+21,8.47942818503896e+22,1.8138736386970034e+43,3.2753279938077446e+42,7.19020101275218e+45,-4.620991102239438e+45,-1.2644564412857736e+45,-1.0964659461742137e+48,0
